"","X1","X1_3","X1_2","X1_1","stimuliShown","group_1","perceptual_result","block","stim1","stim2","response","rt","reward","ID","stim_chosen","typeOfChoice","highChosen","riskChosen","forced","choices","win","correct","risky","trial","trial_cont","trial_id","trial_n","trigger_integer","buttonBox_2.keys","participant","ID_n","trigger_feedback","trialIndex","first_observer","second_observer","block_soc","pair_type"
"1",1,1,1,1,21,"underestimator","overestimator",1,2,1,NA,NA,66,1,0,1,NA,NA,0,NA,1,NA,NA,1,1,1,1,21,"None","sub-001",1,22,1,"out-group","in-group","baseline","both_high"
"2",2,2,2,2,31,"underestimator","overestimator",1,3,1,NA,NA,59,1,0,2,0,NA,0,NA,NA,NA,NA,2,2,2,2,31,"None","sub-001",1,32,2,"out-group","in-group","baseline","different"
"3",3,3,3,3,23,"underestimator","overestimator",1,2,3,NA,NA,48,1,0,4,0,NA,0,NA,NA,NA,NA,3,3,3,3,23,"None","sub-001",1,24,3,"out-group","in-group","baseline","different"
"4",4,4,4,4,13,"underestimator","overestimator",1,1,3,1,0.9840647,59,1,3,2,0,NA,0,0,NA,0,NA,4,4,4,4,13,"1","sub-001",1,14,4,"out-group","in-group","baseline","different"
"5",5,5,5,5,13,"underestimator","overestimator",1,1,3,0,1.1326143,63,1,1,2,1,NA,0,1,NA,1,NA,5,5,5,5,13,"0","sub-001",1,14,5,"out-group","in-group","baseline","different"
"6",6,6,6,6,43,"underestimator","overestimator",1,4,3,1,0.608768,55,1,3,6,NA,1,0,0,-1,NA,1,6,6,6,6,43,"1","sub-001",1,44,6,"out-group","in-group","baseline","both_low"
"7",7,7,7,7,34,"underestimator","overestimator",1,3,4,1,1.1309331,42,1,4,6,NA,0,0,0,-1,NA,0,7,7,7,7,34,"1","sub-001",1,35,7,"out-group","in-group","baseline","both_low"
"8",8,8,8,8,42,"underestimator","overestimator",1,4,2,0,1.1826298,41,1,4,5,0,NA,0,1,NA,0,NA,8,8,8,8,42,"0","sub-001",1,43,8,"out-group","in-group","baseline","different"
"9",9,9,9,9,12,"underestimator","overestimator",1,1,2,1,0.6281477,72,1,2,1,NA,0,0,0,1,NA,0,9,9,9,9,12,"1","sub-001",1,13,9,"out-group","in-group","baseline","both_high"
"10",10,10,10,10,12,"underestimator","overestimator",1,1,2,1,1.0904238,55,1,2,1,NA,0,0,0,1,NA,0,10,10,10,10,12,"1","sub-001",1,13,10,"out-group","in-group","baseline","both_high"
"11",11,11,11,11,32,"underestimator","overestimator",1,3,2,1,1.4507693,64,1,2,4,1,NA,0,0,NA,1,NA,11,11,11,11,32,"1","sub-001",1,33,11,"out-group","in-group","baseline","different"
"12",12,12,12,12,21,"underestimator","overestimator",1,2,1,NA,NA,53,1,0,1,NA,NA,0,NA,1,NA,NA,12,12,12,12,21,"None","sub-001",1,22,12,"out-group","in-group","baseline","both_high"
"13",13,13,13,13,34,"underestimator","overestimator",1,3,4,0,1.1982601,29,1,3,6,NA,1,0,1,-1,NA,1,13,13,13,13,34,"0","sub-001",1,35,13,"out-group","in-group","baseline","both_low"
"14",14,14,14,14,34,"underestimator","overestimator",1,3,4,1,0.5994522,38,1,4,6,NA,0,0,0,-1,NA,0,14,14,14,14,34,"1","sub-001",1,35,14,"out-group","in-group","baseline","both_low"
"15",15,15,15,15,32,"underestimator","overestimator",1,3,2,1,1.1564967,53,1,2,4,1,NA,0,0,NA,1,NA,15,15,15,15,32,"1","sub-001",1,33,15,"out-group","in-group","baseline","different"
"16",16,16,16,16,32,"underestimator","overestimator",1,3,2,1,0.8418594,64,1,2,4,1,NA,0,0,NA,1,NA,16,16,16,16,32,"1","sub-001",1,33,16,"out-group","in-group","baseline","different"
"17",17,17,17,17,42,"underestimator","overestimator",1,4,2,1,0.8515357,61,1,2,5,1,NA,0,0,NA,1,NA,17,17,17,17,42,"1","sub-001",1,43,17,"out-group","in-group","baseline","different"
"18",18,18,18,18,43,"underestimator","overestimator",1,4,3,0,0.6650493,44,1,4,6,NA,0,0,1,-1,NA,0,18,18,18,18,43,"0","sub-001",1,44,18,"out-group","in-group","baseline","both_low"
"19",19,19,19,19,14,"underestimator","overestimator",1,1,4,0,1.4321454,64,1,1,3,1,NA,0,1,NA,1,NA,19,19,19,19,14,"0","sub-001",1,15,19,"out-group","in-group","baseline","different"
"20",20,20,20,20,34,"underestimator","overestimator",1,3,4,NA,NA,40,1,0,6,NA,NA,0,NA,-1,NA,NA,20,20,20,20,34,"None","sub-001",1,35,20,"out-group","in-group","baseline","both_low"
"21",21,21,21,21,32,"underestimator","overestimator",1,3,2,1,0.8826433,64,1,2,4,1,NA,0,0,NA,1,NA,21,21,21,21,32,"1","sub-001",1,33,21,"out-group","in-group","baseline","different"
"22",22,22,22,22,14,"underestimator","overestimator",1,1,4,NA,NA,42,1,0,3,0,NA,0,NA,NA,NA,NA,22,22,22,22,14,"None","sub-001",1,15,22,"out-group","in-group","baseline","different"
"23",23,23,23,23,43,"underestimator","overestimator",1,4,3,1,1.0743156,21,1,3,6,NA,1,0,0,-1,NA,1,23,23,23,23,43,"1","sub-001",1,44,23,"out-group","in-group","baseline","both_low"
"24",24,24,24,24,13,"underestimator","overestimator",1,1,3,0,1.4068935,50,1,1,2,1,NA,0,1,NA,1,NA,24,24,24,24,13,"0","sub-001",1,14,24,"out-group","in-group","baseline","different"
"25",25,25,25,25,24,"underestimator","overestimator",1,2,4,0,1.0574537,62,1,2,5,1,NA,0,1,NA,1,NA,25,25,25,25,24,"0","sub-001",1,25,25,"out-group","in-group","baseline","different"
"26",26,26,26,26,43,"underestimator","overestimator",1,4,3,0,0.8723956,42,1,4,6,NA,0,0,1,-1,NA,0,26,26,26,26,43,"0","sub-001",1,44,26,"out-group","in-group","baseline","both_low"
"27",27,27,27,27,32,"underestimator","overestimator",1,3,2,1,0.8907312,57,1,2,4,1,NA,0,0,NA,1,NA,27,27,27,27,32,"1","sub-001",1,33,27,"out-group","in-group","baseline","different"
"28",28,28,28,28,43,"underestimator","overestimator",1,4,3,0,1.2279676,40,1,4,6,NA,0,0,1,-1,NA,0,28,28,28,28,43,"0","sub-001",1,44,28,"out-group","in-group","baseline","both_low"
"29",29,29,29,29,14,"underestimator","overestimator",1,1,4,0,1.1422737,73,1,1,3,1,NA,0,1,NA,1,NA,29,29,29,29,14,"0","sub-001",1,15,29,"out-group","in-group","baseline","different"
"30",30,30,30,30,14,"underestimator","overestimator",1,1,4,0,0.7526994,72,1,1,3,1,NA,0,1,NA,1,NA,30,30,30,30,14,"0","sub-001",1,15,30,"out-group","in-group","baseline","different"
"31",31,31,31,31,14,"underestimator","overestimator",1,1,4,0,0.5410119,73,1,1,3,1,NA,0,1,NA,1,NA,31,31,31,31,14,"0","sub-001",1,15,31,"out-group","in-group","baseline","different"
"32",32,32,32,32,14,"underestimator","overestimator",1,1,4,0,0.4520175,73,1,1,3,1,NA,0,1,NA,1,NA,32,32,32,32,14,"0","sub-001",1,15,32,"out-group","in-group","baseline","different"
"33",33,33,33,33,21,"underestimator","overestimator",1,2,1,NA,NA,42,1,0,1,NA,NA,0,NA,1,NA,NA,33,33,33,33,21,"None","sub-001",1,22,33,"out-group","in-group","baseline","both_high"
"34",34,34,34,34,24,"underestimator","overestimator",1,2,4,0,0.8760802,57,1,2,5,1,NA,0,1,NA,1,NA,34,34,34,34,24,"0","sub-001",1,25,34,"out-group","in-group","baseline","different"
"35",35,35,35,35,41,"underestimator","overestimator",1,4,1,1,0.5649249,85,1,1,3,1,NA,0,0,NA,1,NA,35,35,35,35,41,"1","sub-001",1,42,35,"out-group","in-group","baseline","different"
"36",36,36,36,36,31,"underestimator","overestimator",1,3,1,1,0.8080419,72,1,1,2,1,NA,0,0,NA,1,NA,36,36,36,36,31,"1","sub-001",1,32,36,"out-group","in-group","baseline","different"
"37",37,37,37,37,42,"underestimator","overestimator",1,4,2,1,0.5401535,57,1,2,5,1,NA,0,0,NA,1,NA,37,37,37,37,42,"1","sub-001",1,43,37,"out-group","in-group","baseline","different"
"38",38,38,38,38,24,"underestimator","overestimator",1,2,4,0,0.6482889,64,1,2,5,1,NA,0,1,NA,1,NA,38,38,38,38,24,"0","sub-001",1,25,38,"out-group","in-group","baseline","different"
"39",39,39,39,39,12,"underestimator","overestimator",1,1,2,0,1.1493847,74,1,1,1,NA,1,0,1,1,NA,1,39,39,39,39,12,"0","sub-001",1,13,39,"out-group","in-group","baseline","both_high"
"40",40,40,40,40,34,"underestimator","overestimator",1,3,4,1,1.314682,36,1,4,6,NA,0,0,0,-1,NA,0,40,40,40,40,34,"1","sub-001",1,35,40,"out-group","in-group","baseline","both_low"
"41",41,41,41,41,24,"underestimator","overestimator",1,2,4,0,1.3426254,55,1,2,5,1,NA,0,1,NA,1,NA,41,41,41,41,24,"0","sub-001",1,25,41,"out-group","in-group","baseline","different"
"42",42,42,42,42,41,"underestimator","overestimator",1,4,1,1,0.6405912,78,1,1,3,1,NA,0,0,NA,1,NA,42,42,42,42,41,"1","sub-001",1,42,42,"out-group","in-group","baseline","different"
"43",43,43,43,43,12,"underestimator","overestimator",1,1,2,0,0.4447647,53,1,1,1,NA,1,0,1,1,NA,1,43,43,43,43,12,"0","sub-001",1,13,43,"out-group","in-group","baseline","both_high"
"44",44,44,44,44,21,"underestimator","overestimator",1,2,1,0,0.4669187,56,1,2,1,NA,0,0,1,1,NA,0,44,44,44,44,21,"0","sub-001",1,22,44,"out-group","in-group","baseline","both_high"
"45",45,45,45,45,14,"underestimator","overestimator",1,1,4,0,0.5013608,74,1,1,3,1,NA,0,1,NA,1,NA,45,45,45,45,14,"0","sub-001",1,15,45,"out-group","in-group","baseline","different"
"46",46,46,46,46,31,"underestimator","overestimator",1,3,1,1,1.2899903,72,1,1,2,1,NA,0,0,NA,1,NA,46,46,46,46,31,"1","sub-001",1,32,46,"out-group","in-group","baseline","different"
"47",47,47,47,47,41,"underestimator","overestimator",1,4,1,1,0.6167387,38,1,1,3,1,NA,0,0,NA,1,NA,47,47,47,47,41,"1","sub-001",1,42,47,"out-group","in-group","baseline","different"
"48",48,48,48,48,34,"underestimator","overestimator",1,3,4,NA,NA,39,1,0,6,NA,NA,0,NA,-1,NA,NA,48,48,48,48,34,"None","sub-001",1,35,48,"out-group","in-group","baseline","both_low"
"49",49,49,49,49,12,"underestimator","overestimator",1,1,2,0,0.9512847,68,1,1,1,NA,1,0,1,1,NA,1,49,49,49,49,12,"0","sub-001",1,13,49,"out-group","in-group","baseline","both_high"
"50",50,50,50,50,42,"underestimator","overestimator",1,4,2,1,0.7324723,58,1,2,5,1,NA,0,0,NA,1,NA,50,50,50,50,42,"1","sub-001",1,43,50,"out-group","in-group","baseline","different"
"51",51,51,51,51,24,"underestimator","overestimator",1,2,4,0,0.8001976,57,1,2,5,1,NA,0,1,NA,1,NA,51,51,51,51,24,"0","sub-001",1,25,51,"out-group","in-group","baseline","different"
"52",52,52,52,52,42,"underestimator","overestimator",1,4,2,1,0.5965228,62,1,2,5,1,NA,0,0,NA,1,NA,52,52,52,52,42,"1","sub-001",1,43,52,"out-group","in-group","baseline","different"
"53",53,53,53,53,41,"underestimator","overestimator",1,4,1,1,0.4414929,66,1,1,3,1,NA,0,0,NA,1,NA,53,53,53,53,41,"1","sub-001",1,42,53,"out-group","in-group","baseline","different"
"54",54,54,54,54,21,"underestimator","overestimator",1,2,1,1,0.4955872,64,1,1,1,NA,1,0,0,1,NA,1,54,54,54,54,21,"1","sub-001",1,22,54,"out-group","in-group","baseline","both_high"
"55",55,55,55,55,32,"underestimator","overestimator",1,3,2,1,0.8061451,55,1,2,4,1,NA,0,0,NA,1,NA,55,55,55,55,32,"1","sub-001",1,33,55,"out-group","in-group","baseline","different"
"56",56,56,56,56,32,"underestimator","overestimator",1,3,2,1,0.7051103,58,1,2,4,1,NA,0,0,NA,1,NA,56,56,56,56,32,"1","sub-001",1,33,56,"out-group","in-group","baseline","different"
"57",57,57,57,57,42,"underestimator","overestimator",1,4,2,1,0.5050029,54,1,2,5,1,NA,0,0,NA,1,NA,57,57,57,57,42,"1","sub-001",1,43,57,"out-group","in-group","baseline","different"
"58",58,58,58,58,31,"underestimator","overestimator",1,3,1,1,0.9772421,56,1,1,2,1,NA,0,0,NA,1,NA,58,58,58,58,31,"1","sub-001",1,32,58,"out-group","in-group","baseline","different"
"59",59,59,59,59,13,"underestimator","overestimator",1,1,3,0,0.5507575,75,1,1,2,1,NA,0,1,NA,1,NA,59,59,59,59,13,"0","sub-001",1,14,59,"out-group","in-group","baseline","different"
"60",60,60,60,60,41,"underestimator","overestimator",1,4,1,1,0.6671437,84,1,1,3,1,NA,0,0,NA,1,NA,60,60,60,60,41,"1","sub-001",1,42,60,"out-group","in-group","baseline","different"
"61",61,61,61,61,24,"underestimator","overestimator",1,2,4,0,0.7218842,52,1,2,5,1,NA,0,1,NA,1,NA,61,61,61,61,24,"0","sub-001",1,25,61,"out-group","in-group","baseline","different"
"62",62,62,62,62,23,"underestimator","overestimator",1,2,3,0,0.8425871,60,1,2,4,1,NA,0,1,NA,1,NA,62,62,62,62,23,"0","sub-001",1,24,62,"out-group","in-group","baseline","different"
"63",63,63,63,63,43,"underestimator","overestimator",1,4,3,0,1.4637801,47,1,4,6,NA,0,0,1,-1,NA,0,63,63,63,63,43,"0","sub-001",1,44,63,"out-group","in-group","baseline","both_low"
"64",64,64,64,64,24,"underestimator","overestimator",1,2,4,0,0.9262606,57,1,2,5,1,NA,0,1,NA,1,NA,64,64,64,64,24,"0","sub-001",1,25,64,"out-group","in-group","baseline","different"
"65",65,65,65,65,13,"underestimator","overestimator",1,1,3,0,0.829316,47,1,1,2,1,NA,0,1,NA,1,NA,65,65,65,65,13,"0","sub-001",1,14,65,"out-group","in-group","baseline","different"
"66",66,66,66,66,43,"underestimator","overestimator",1,4,3,0,1.1982517,36,1,4,6,NA,0,0,1,-1,NA,0,66,66,66,66,43,"0","sub-001",1,44,66,"out-group","in-group","baseline","both_low"
"67",67,67,67,67,12,"underestimator","overestimator",1,1,2,0,1.0528156,91,1,1,1,NA,1,0,1,1,NA,1,67,67,67,67,12,"0","sub-001",1,13,67,"out-group","in-group","baseline","both_high"
"68",68,68,68,68,42,"underestimator","overestimator",1,4,2,1,1.0214802,59,1,2,5,1,NA,0,0,NA,1,NA,68,68,68,68,42,"1","sub-001",1,43,68,"out-group","in-group","baseline","different"
"69",69,69,69,69,14,"underestimator","overestimator",1,1,4,0,0.6539449,83,1,1,3,1,NA,0,1,NA,1,NA,69,69,69,69,14,"0","sub-001",1,15,69,"out-group","in-group","baseline","different"
"70",70,70,70,70,12,"underestimator","overestimator",1,1,2,0,0.6280077,50,1,1,1,NA,1,0,1,1,NA,1,70,70,70,70,12,"0","sub-001",1,13,70,"out-group","in-group","baseline","both_high"
"71",71,71,71,71,12,"underestimator","overestimator",1,1,2,0,0.4783943,78,1,1,1,NA,1,0,1,1,NA,1,71,71,71,71,12,"0","sub-001",1,13,71,"out-group","in-group","baseline","both_high"
"72",72,72,72,72,41,"underestimator","overestimator",1,4,1,1,0.6390975,73,1,1,3,1,NA,0,0,NA,1,NA,72,72,72,72,41,"1","sub-001",1,42,72,"out-group","in-group","baseline","different"
"73",73,73,73,73,43,"underestimator","overestimator",1,4,3,0,1.3192807,52,1,4,6,NA,0,0,1,-1,NA,0,73,73,73,73,43,"0","sub-001",1,44,73,"out-group","in-group","baseline","both_low"
"74",74,74,74,74,21,"underestimator","overestimator",1,2,1,1,0.6417917,76,1,1,1,NA,1,0,0,1,NA,1,74,74,74,74,21,"1","sub-001",1,22,74,"out-group","in-group","baseline","both_high"
"75",75,75,75,75,14,"underestimator","overestimator",1,1,4,0,0.642546,70,1,1,3,1,NA,0,1,NA,1,NA,75,75,75,75,14,"0","sub-001",1,15,75,"out-group","in-group","baseline","different"
"76",76,76,76,76,23,"underestimator","overestimator",1,2,3,0,1.2569858,65,1,2,4,1,NA,0,1,NA,1,NA,76,76,76,76,23,"0","sub-001",1,24,76,"out-group","in-group","baseline","different"
"77",77,77,77,77,31,"underestimator","overestimator",1,3,1,1,0.8785051,30,1,1,2,1,NA,0,0,NA,1,NA,77,77,77,77,31,"1","sub-001",1,32,77,"out-group","in-group","baseline","different"
"78",78,78,78,78,24,"underestimator","overestimator",1,2,4,0,1.2537832,55,1,2,5,1,NA,0,1,NA,1,NA,78,78,78,78,24,"0","sub-001",1,25,78,"out-group","in-group","baseline","different"
"79",79,79,79,79,31,"underestimator","overestimator",1,3,1,1,0.548802,54,1,1,2,1,NA,0,0,NA,1,NA,79,79,79,79,31,"1","sub-001",1,32,79,"out-group","in-group","baseline","different"
"80",80,80,80,80,41,"underestimator","overestimator",1,4,1,1,0.5703513,90,1,1,3,1,NA,0,0,NA,1,NA,80,80,80,80,41,"1","sub-001",1,42,80,"out-group","in-group","baseline","different"
"81",81,81,81,81,24,"underestimator","overestimator",1,2,4,0,0.7138653,63,1,2,5,1,NA,0,1,NA,1,NA,81,81,81,81,24,"0","sub-001",1,25,81,"out-group","in-group","baseline","different"
"82",82,82,82,82,41,"underestimator","overestimator",1,4,1,1,0.4956996,88,1,1,3,1,NA,0,0,NA,1,NA,82,82,82,82,41,"1","sub-001",1,42,82,"out-group","in-group","baseline","different"
"83",83,83,83,83,41,"underestimator","overestimator",1,4,1,1,0.6054255,64,1,1,3,1,NA,0,0,NA,1,NA,83,83,83,83,41,"1","sub-001",1,42,83,"out-group","in-group","baseline","different"
"84",84,84,84,84,13,"underestimator","overestimator",1,1,3,0,0.8853673,27,1,1,2,1,NA,0,1,NA,1,NA,84,84,84,84,13,"0","sub-001",1,14,84,"out-group","in-group","baseline","different"
"85",85,85,85,85,12,"underestimator","overestimator",1,1,2,0,0.6838652,55,1,1,1,NA,1,0,1,1,NA,1,85,85,85,85,12,"0","sub-001",1,13,85,"out-group","in-group","baseline","both_high"
"86",86,86,86,86,31,"underestimator","overestimator",1,3,1,1,0.5428181,66,1,1,2,1,NA,0,0,NA,1,NA,86,86,86,86,31,"1","sub-001",1,32,86,"out-group","in-group","baseline","different"
"87",87,87,87,87,34,"underestimator","overestimator",1,3,4,NA,NA,37,1,0,6,NA,NA,0,NA,-1,NA,NA,87,87,87,87,34,"None","sub-001",1,35,87,"out-group","in-group","baseline","both_low"
"88",88,88,88,88,23,"underestimator","overestimator",1,2,3,1,0.853652,57,1,3,4,0,NA,0,0,NA,0,NA,88,88,88,88,23,"1","sub-001",1,24,88,"out-group","in-group","baseline","different"
"89",89,89,89,89,13,"underestimator","overestimator",1,1,3,0,1.033392,60,1,1,2,1,NA,0,1,NA,1,NA,89,89,89,89,13,"0","sub-001",1,14,89,"out-group","in-group","baseline","different"
"90",90,90,90,90,34,"underestimator","overestimator",1,3,4,1,1.345618,33,1,4,6,NA,0,0,0,-1,NA,0,90,90,90,90,34,"1","sub-001",1,35,90,"out-group","in-group","baseline","both_low"
"91",91,91,91,91,32,"underestimator","overestimator",1,3,2,0,1.2420642,56,1,3,4,0,NA,0,1,NA,0,NA,91,91,91,91,32,"0","sub-001",1,33,91,"out-group","in-group","baseline","different"
"92",92,92,92,92,21,"underestimator","overestimator",1,2,1,1,0.8865238,83,1,1,1,NA,1,0,0,1,NA,1,92,92,92,92,21,"1","sub-001",1,22,92,"out-group","in-group","baseline","both_high"
"93",93,93,93,93,34,"underestimator","overestimator",1,3,4,0,1.169815,20,1,3,6,NA,1,0,1,-1,NA,1,93,93,93,93,34,"0","sub-001",1,35,93,"out-group","in-group","baseline","both_low"
"94",94,94,94,94,23,"underestimator","overestimator",1,2,3,0,0.9665508,48,1,2,4,1,NA,0,1,NA,1,NA,94,94,94,94,23,"0","sub-001",1,24,94,"out-group","in-group","baseline","different"
"95",95,95,95,95,13,"underestimator","overestimator",1,1,3,0,0.8692212,72,1,1,2,1,NA,0,1,NA,1,NA,95,95,95,95,13,"0","sub-001",1,14,95,"out-group","in-group","baseline","different"
"96",96,96,96,96,42,"underestimator","overestimator",1,4,2,1,0.8625346,55,1,2,5,1,NA,0,0,NA,1,NA,96,96,96,96,42,"1","sub-001",1,43,96,"out-group","in-group","baseline","different"
"97",97,97,97,97,43,"underestimator","overestimator",1,4,3,1,1.391733,25,1,3,6,NA,1,0,0,-1,NA,1,97,97,97,97,43,"1","sub-001",1,44,97,"out-group","in-group","baseline","both_low"
"98",98,98,98,98,23,"underestimator","overestimator",1,2,3,0,0.7735356,62,1,2,4,1,NA,0,1,NA,1,NA,98,98,98,98,23,"0","sub-001",1,24,98,"out-group","in-group","baseline","different"
"99",99,99,99,99,12,"underestimator","overestimator",1,1,2,0,0.9193007,41,1,1,1,NA,1,0,1,1,NA,1,99,99,99,99,12,"0","sub-001",1,13,99,"out-group","in-group","baseline","both_high"
"100",100,100,100,100,13,"underestimator","overestimator",1,1,3,0,0.6297672,57,1,1,2,1,NA,0,1,NA,1,NA,100,100,100,100,13,"0","sub-001",1,14,100,"out-group","in-group","baseline","different"
"101",101,101,101,101,32,"underestimator","overestimator",1,3,2,1,0.9460445,50,1,2,4,1,NA,0,0,NA,1,NA,101,101,101,101,32,"1","sub-001",1,33,101,"out-group","in-group","baseline","different"
"102",102,102,102,102,21,"underestimator","overestimator",1,2,1,1,0.5374578,84,1,1,1,NA,1,0,0,1,NA,1,102,102,102,102,21,"1","sub-001",1,22,102,"out-group","in-group","baseline","both_high"
"103",103,103,103,103,34,"underestimator","overestimator",1,3,4,1,1.4496764,41,1,4,6,NA,0,0,0,-1,NA,0,103,103,103,103,34,"1","sub-001",1,35,103,"out-group","in-group","baseline","both_low"
"104",104,104,104,104,34,"underestimator","overestimator",1,3,4,1,0.8541636,36,1,4,6,NA,0,0,0,-1,NA,0,104,104,104,104,34,"1","sub-001",1,35,104,"out-group","in-group","baseline","both_low"
"105",105,105,105,105,31,"underestimator","overestimator",1,3,1,1,0.9622808,75,1,1,2,1,NA,0,0,NA,1,NA,105,105,105,105,31,"1","sub-001",1,32,105,"out-group","in-group","baseline","different"
"106",106,106,106,106,14,"underestimator","overestimator",1,1,4,0,0.6787034,62,1,1,3,1,NA,0,1,NA,1,NA,106,106,106,106,14,"0","sub-001",1,15,106,"out-group","in-group","baseline","different"
"107",107,107,107,107,13,"underestimator","overestimator",1,1,3,0,0.5986626,64,1,1,2,1,NA,0,1,NA,1,NA,107,107,107,107,13,"0","sub-001",1,14,107,"out-group","in-group","baseline","different"
"108",108,108,108,108,23,"underestimator","overestimator",1,2,3,0,1.3382997,51,1,2,4,1,NA,0,1,NA,1,NA,108,108,108,108,23,"0","sub-001",1,24,108,"out-group","in-group","baseline","different"
"109",109,109,109,109,14,"underestimator","overestimator",1,1,4,0,0.7757294,91,1,1,3,1,NA,0,1,NA,1,NA,109,109,109,109,14,"0","sub-001",1,15,109,"out-group","in-group","baseline","different"
"110",110,110,110,110,32,"underestimator","overestimator",1,3,2,1,1.1698102,55,1,2,4,1,NA,0,0,NA,1,NA,110,110,110,110,32,"1","sub-001",1,33,110,"out-group","in-group","baseline","different"
"111",111,111,111,111,31,"underestimator","overestimator",1,3,1,1,0.8565245,49,1,1,2,1,NA,0,0,NA,1,NA,111,111,111,111,31,"1","sub-001",1,32,111,"out-group","in-group","baseline","different"
"112",112,112,112,112,12,"underestimator","overestimator",1,1,2,0,0.6236393,75,1,1,1,NA,1,0,1,1,NA,1,112,112,112,112,12,"0","sub-001",1,13,112,"out-group","in-group","baseline","both_high"
"113",113,113,113,113,23,"underestimator","overestimator",1,2,3,0,1.2107402,60,1,2,4,1,NA,0,1,NA,1,NA,113,113,113,113,23,"0","sub-001",1,24,113,"out-group","in-group","baseline","different"
"114",114,114,114,114,43,"underestimator","overestimator",1,4,3,0,1.1330066,40,1,4,6,NA,0,0,1,-1,NA,0,114,114,114,114,43,"0","sub-001",1,44,114,"out-group","in-group","baseline","both_low"
"115",115,115,115,115,41,"underestimator","overestimator",1,4,1,1,0.5157945,60,1,1,3,1,NA,0,0,NA,1,NA,115,115,115,115,41,"1","sub-001",1,42,115,"out-group","in-group","baseline","different"
"116",116,116,116,116,23,"underestimator","overestimator",1,2,3,0,0.9365388,59,1,2,4,1,NA,0,1,NA,1,NA,116,116,116,116,23,"0","sub-001",1,24,116,"out-group","in-group","baseline","different"
"117",117,117,117,117,31,"underestimator","overestimator",1,3,1,1,0.5658825,79,1,1,2,1,NA,0,0,NA,1,NA,117,117,117,117,31,"1","sub-001",1,32,117,"out-group","in-group","baseline","different"
"118",118,118,118,118,14,"underestimator","overestimator",1,1,4,0,0.4772042,61,1,1,3,1,NA,0,1,NA,1,NA,118,118,118,118,14,"0","sub-001",1,15,118,"out-group","in-group","baseline","different"
"119",119,119,119,119,14,"underestimator","overestimator",1,1,4,0,0.6277713,88,1,1,3,1,NA,0,1,NA,1,NA,119,119,119,119,14,"0","sub-001",1,15,119,"out-group","in-group","baseline","different"
"120",120,120,120,120,31,"underestimator","overestimator",1,3,1,1,0.6392262,81,1,1,2,1,NA,0,0,NA,1,NA,120,120,120,120,31,"1","sub-001",1,32,120,"out-group","in-group","baseline","different"
"121",121,121,121,121,14,"underestimator","overestimator",1,1,4,0,0.4484522,97,1,1,3,1,NA,0,1,NA,1,NA,121,121,121,121,14,"0","sub-001",1,15,121,"out-group","in-group","baseline","different"
"122",122,122,122,122,12,"underestimator","overestimator",1,1,2,0,0.4026893,53,1,1,1,NA,1,0,1,1,NA,1,122,122,122,122,12,"0","sub-001",1,13,122,"out-group","in-group","baseline","both_high"
"123",123,123,123,123,42,"underestimator","overestimator",1,4,2,1,1.1307104,58,1,2,5,1,NA,0,0,NA,1,NA,123,123,123,123,42,"1","sub-001",1,43,123,"out-group","in-group","baseline","different"
"124",124,124,124,124,12,"underestimator","overestimator",1,1,2,0,0.4538754,80,1,1,1,NA,1,0,1,1,NA,1,124,124,124,124,12,"0","sub-001",1,13,124,"out-group","in-group","baseline","both_high"
"125",125,125,125,125,12,"underestimator","overestimator",1,1,2,0,0.556608,45,1,1,1,NA,1,0,1,1,NA,1,125,125,125,125,12,"0","sub-001",1,13,125,"out-group","in-group","baseline","both_high"
"126",126,126,126,126,21,"underestimator","overestimator",1,2,1,1,0.416717,70,1,1,1,NA,1,0,0,1,NA,1,126,126,126,126,21,"1","sub-001",1,22,126,"out-group","in-group","baseline","both_high"
"127",127,127,127,127,34,"underestimator","overestimator",1,3,4,1,1.2118769,36,1,4,6,NA,0,0,0,-1,NA,0,127,127,127,127,34,"1","sub-001",1,35,127,"out-group","in-group","baseline","both_low"
"128",128,128,128,128,13,"underestimator","overestimator",1,1,3,0,0.5538585,81,1,1,2,1,NA,0,1,NA,1,NA,128,128,128,128,13,"0","sub-001",1,14,128,"out-group","in-group","baseline","different"
"129",129,129,129,129,42,"underestimator","overestimator",1,4,2,1,1.4249596,56,1,2,5,1,NA,0,0,NA,1,NA,129,129,129,129,42,"1","sub-001",1,43,129,"out-group","in-group","baseline","different"
"130",130,130,130,130,24,"underestimator","overestimator",1,2,4,0,1.2401356,63,1,2,5,1,NA,0,1,NA,1,NA,130,130,130,130,24,"0","sub-001",1,25,130,"out-group","in-group","baseline","different"
"131",131,131,131,131,21,"underestimator","overestimator",1,2,1,1,0.4684504,71,1,1,1,NA,1,0,0,1,NA,1,131,131,131,131,21,"1","sub-001",1,22,131,"out-group","in-group","baseline","both_high"
"132",132,132,132,132,31,"underestimator","overestimator",1,3,1,1,0.428874,73,1,1,2,1,NA,0,0,NA,1,NA,132,132,132,132,31,"1","sub-001",1,32,132,"out-group","in-group","baseline","different"
"133",133,133,133,133,23,"underestimator","overestimator",1,2,3,0,0.7168911,54,1,2,4,1,NA,0,1,NA,1,NA,133,133,133,133,23,"0","sub-001",1,24,133,"out-group","in-group","baseline","different"
"134",134,134,134,134,32,"underestimator","overestimator",1,3,2,1,0.937037,56,1,2,4,1,NA,0,0,NA,1,NA,134,134,134,134,32,"1","sub-001",1,33,134,"out-group","in-group","baseline","different"
"135",135,135,135,135,24,"underestimator","overestimator",1,2,4,0,0.8523265,50,1,2,5,1,NA,0,1,NA,1,NA,135,135,135,135,24,"0","sub-001",1,25,135,"out-group","in-group","baseline","different"
"136",136,136,136,136,13,"underestimator","overestimator",1,1,3,0,0.9477853,97,1,1,2,1,NA,0,1,NA,1,NA,136,136,136,136,13,"0","sub-001",1,14,136,"out-group","in-group","baseline","different"
"137",137,137,137,137,23,"underestimator","overestimator",1,2,3,0,0.8085451,57,1,2,4,1,NA,0,1,NA,1,NA,137,137,137,137,23,"0","sub-001",1,24,137,"out-group","in-group","baseline","different"
"138",138,138,138,138,21,"underestimator","overestimator",1,2,1,1,0.496857,75,1,1,1,NA,1,0,0,1,NA,1,138,138,138,138,21,"1","sub-001",1,22,138,"out-group","in-group","baseline","both_high"
"139",139,139,139,139,31,"underestimator","overestimator",1,3,1,1,0.6385987,79,1,1,2,1,NA,0,0,NA,1,NA,139,139,139,139,31,"1","sub-001",1,32,139,"out-group","in-group","baseline","different"
"140",140,140,140,140,32,"underestimator","overestimator",1,3,2,1,0.9619695,54,1,2,4,1,NA,0,0,NA,1,NA,140,140,140,140,32,"1","sub-001",1,33,140,"out-group","in-group","baseline","different"
"141",141,141,141,141,21,"underestimator","overestimator",1,2,1,1,0.8286851,54,1,1,1,NA,1,0,0,1,NA,1,141,141,141,141,21,"1","sub-001",1,22,141,"out-group","in-group","baseline","both_high"
"142",142,142,142,142,21,"underestimator","overestimator",1,2,1,1,0.4355093,59,1,1,1,NA,1,0,0,1,NA,1,142,142,142,142,21,"1","sub-001",1,22,142,"out-group","in-group","baseline","both_high"
"143",143,143,143,143,31,"underestimator","overestimator",1,3,1,1,0.4626429,66,1,1,2,1,NA,0,0,NA,1,NA,143,143,143,143,31,"1","sub-001",1,32,143,"out-group","in-group","baseline","different"
"144",144,144,144,144,41,"underestimator","overestimator",1,4,1,1,0.4508207,77,1,1,3,1,NA,0,0,NA,1,NA,144,144,144,144,41,"1","sub-001",1,42,144,"out-group","in-group","baseline","different"
"145",145,145,145,145,23,"underestimator","overestimator",1,2,3,0,0.7181179,56,1,2,4,1,NA,0,1,NA,1,NA,145,145,145,145,23,"0","sub-001",1,24,145,"out-group","in-group","baseline","different"
"146",146,146,146,146,42,"underestimator","overestimator",1,4,2,1,0.6375947,52,1,2,5,1,NA,0,0,NA,1,NA,146,146,146,146,42,"1","sub-001",1,43,146,"out-group","in-group","baseline","different"
"147",147,147,147,147,24,"underestimator","overestimator",1,2,4,0,0.7841353,57,1,2,5,1,NA,0,1,NA,1,NA,147,147,147,147,24,"0","sub-001",1,25,147,"out-group","in-group","baseline","different"
"148",148,148,148,148,21,"underestimator","overestimator",1,2,1,1,0.4514002,98,1,1,1,NA,1,0,0,1,NA,1,148,148,148,148,21,"1","sub-001",1,22,148,"out-group","in-group","baseline","both_high"
"149",149,149,149,149,41,"underestimator","overestimator",1,4,1,1,0.4522581,81,1,1,3,1,NA,0,0,NA,1,NA,149,149,149,149,41,"1","sub-001",1,42,149,"out-group","in-group","baseline","different"
"150",150,150,150,150,13,"underestimator","overestimator",1,1,3,0,0.4691007,57,1,1,2,1,NA,0,1,NA,1,NA,150,150,150,150,13,"0","sub-001",1,14,150,"out-group","in-group","baseline","different"
"151",151,151,151,151,13,"underestimator","overestimator",1,1,3,0,0.4779963,80,1,1,2,1,NA,0,1,NA,1,NA,151,151,151,151,13,"0","sub-001",1,14,151,"out-group","in-group","baseline","different"
"152",152,152,152,152,31,"underestimator","overestimator",1,3,1,1,0.3964222,70,1,1,2,1,NA,0,0,NA,1,NA,152,152,152,152,31,"1","sub-001",1,32,152,"out-group","in-group","baseline","different"
"153",153,153,153,153,24,"underestimator","overestimator",1,2,4,0,1.2123194,55,1,2,5,1,NA,0,1,NA,1,NA,153,153,153,153,24,"0","sub-001",1,25,153,"out-group","in-group","baseline","different"
"154",154,154,154,154,43,"underestimator","overestimator",1,4,3,0,0.9094059,39,1,4,6,NA,0,0,1,-1,NA,0,154,154,154,154,43,"0","sub-001",1,44,154,"out-group","in-group","baseline","both_low"
"155",155,155,155,155,43,"underestimator","overestimator",1,4,3,0,0.7590502,34,1,4,6,NA,0,0,1,-1,NA,0,155,155,155,155,43,"0","sub-001",1,44,155,"out-group","in-group","baseline","both_low"
"156",156,156,156,156,42,"underestimator","overestimator",1,4,2,1,1.1278875,60,1,2,5,1,NA,0,0,NA,1,NA,156,156,156,156,42,"1","sub-001",1,43,156,"out-group","in-group","baseline","different"
"157",157,157,157,157,21,"underestimator","overestimator",1,2,1,1,0.7534981,67,1,1,1,NA,1,0,0,1,NA,1,157,157,157,157,21,"1","sub-001",1,22,157,"out-group","in-group","baseline","both_high"
"158",158,158,158,158,13,"underestimator","overestimator",1,1,3,0,0.6611523,87,1,1,2,1,NA,0,1,NA,1,NA,158,158,158,158,13,"0","sub-001",1,14,158,"out-group","in-group","baseline","different"
"159",159,159,159,159,14,"underestimator","overestimator",1,1,4,0,0.6253685,49,1,1,3,1,NA,0,1,NA,1,NA,159,159,159,159,14,"0","sub-001",1,15,159,"out-group","in-group","baseline","different"
"160",160,160,160,160,43,"underestimator","overestimator",1,4,3,0,1.1012857,37,1,4,6,NA,0,0,1,-1,NA,0,160,160,160,160,43,"0","sub-001",1,44,160,"out-group","in-group","baseline","both_low"
"161",161,161,161,161,42,"underestimator","overestimator",1,4,2,1,0.6034524,63,1,2,5,1,NA,0,0,NA,1,NA,161,161,161,161,42,"1","sub-001",1,43,161,"out-group","in-group","baseline","different"
"162",162,162,162,162,34,"underestimator","overestimator",1,3,4,1,0.808742,42,1,4,6,NA,0,0,0,-1,NA,0,162,162,162,162,34,"1","sub-001",1,35,162,"out-group","in-group","baseline","both_low"
"163",163,163,163,163,41,"underestimator","overestimator",1,4,1,1,0.6923076,57,1,1,3,1,NA,0,0,NA,1,NA,163,163,163,163,41,"1","sub-001",1,42,163,"out-group","in-group","baseline","different"
"164",164,164,164,164,43,"underestimator","overestimator",1,4,3,0,1.0516589,38,1,4,6,NA,0,0,1,-1,NA,0,164,164,164,164,43,"0","sub-001",1,44,164,"out-group","in-group","baseline","both_low"
"165",165,165,165,165,23,"underestimator","overestimator",1,2,3,0,0.8616892,58,1,2,4,1,NA,0,1,NA,1,NA,165,165,165,165,23,"0","sub-001",1,24,165,"out-group","in-group","baseline","different"
"166",166,166,166,166,42,"underestimator","overestimator",1,4,2,1,0.7524287,55,1,2,5,1,NA,0,0,NA,1,NA,166,166,166,166,42,"1","sub-001",1,43,166,"out-group","in-group","baseline","different"
"167",167,167,167,167,32,"underestimator","overestimator",1,3,2,1,0.8346691,61,1,2,4,1,NA,0,0,NA,1,NA,167,167,167,167,32,"1","sub-001",1,33,167,"out-group","in-group","baseline","different"
"168",168,168,168,168,42,"underestimator","overestimator",1,4,2,1,0.8335996,59,1,2,5,1,NA,0,0,NA,1,NA,168,168,168,168,42,"1","sub-001",1,43,168,"out-group","in-group","baseline","different"
"169",169,169,169,169,23,"underestimator","overestimator",1,2,3,0,0.6804495,49,1,2,4,1,NA,0,1,NA,1,NA,169,169,169,169,23,"0","sub-001",1,24,169,"out-group","in-group","baseline","different"
"170",170,170,170,170,12,"underestimator","overestimator",1,1,2,1,0.6795903,61,1,2,1,NA,0,0,0,1,NA,0,170,170,170,170,12,"1","sub-001",1,13,170,"out-group","in-group","baseline","both_high"
"171",171,171,171,171,41,"underestimator","overestimator",1,4,1,1,0.6503872,66,1,1,3,1,NA,0,0,NA,1,NA,171,171,171,171,41,"1","sub-001",1,42,171,"out-group","in-group","baseline","different"
"172",172,172,172,172,34,"underestimator","overestimator",1,3,4,NA,NA,30,1,0,6,NA,NA,0,NA,-1,NA,NA,172,172,172,172,34,"None","sub-001",1,35,172,"out-group","in-group","baseline","both_low"
"173",173,173,173,173,24,"underestimator","overestimator",1,2,4,0,0.7146225,54,1,2,5,1,NA,0,1,NA,1,NA,173,173,173,173,24,"0","sub-001",1,25,173,"out-group","in-group","baseline","different"
"174",174,174,174,174,41,"underestimator","overestimator",1,4,1,1,0.6001205,80,1,1,3,1,NA,0,0,NA,1,NA,174,174,174,174,41,"1","sub-001",1,42,174,"out-group","in-group","baseline","different"
"175",175,175,175,175,24,"underestimator","overestimator",1,2,4,0,0.6823675,49,1,2,5,1,NA,0,1,NA,1,NA,175,175,175,175,24,"0","sub-001",1,25,175,"out-group","in-group","baseline","different"
"176",176,176,176,176,32,"underestimator","overestimator",1,3,2,1,0.9040577,50,1,2,4,1,NA,0,0,NA,1,NA,176,176,176,176,32,"1","sub-001",1,33,176,"out-group","in-group","baseline","different"
"177",177,177,177,177,34,"underestimator","overestimator",1,3,4,1,0.9504407,40,1,4,6,NA,0,0,0,-1,NA,0,177,177,177,177,34,"1","sub-001",1,35,177,"out-group","in-group","baseline","both_low"
"178",178,178,178,178,32,"underestimator","overestimator",1,3,2,1,0.8411113,66,1,2,4,1,NA,0,0,NA,1,NA,178,178,178,178,32,"1","sub-001",1,33,178,"out-group","in-group","baseline","different"
"179",179,179,179,179,43,"underestimator","overestimator",1,4,3,0,0.8827439,48,1,4,6,NA,0,0,1,-1,NA,0,179,179,179,179,43,"0","sub-001",1,44,179,"out-group","in-group","baseline","both_low"
"180",180,180,180,180,23,"underestimator","overestimator",1,2,3,0,0.8588212,59,1,2,4,1,NA,0,1,NA,1,NA,180,180,180,180,23,"0","sub-001",1,24,180,"out-group","in-group","baseline","different"
"181",181,181,181,181,34,"underestimator","overestimator",2,3,4,NA,NA,49,1,0,6,NA,NA,0,NA,-1,NA,NA,1,1,181,1,34,"None","sub-001",1,35,1,"out-group","in-group","out-group","both_low"
"182",182,182,182,182,32,"underestimator","overestimator",2,3,2,0,1.0926783,52,1,3,4,0,NA,0,1,NA,0,NA,2,2,182,2,32,"0","sub-001",1,33,2,"out-group","in-group","out-group","different"
"183",183,183,183,183,12,"underestimator","overestimator",2,1,2,0,1.2793437,72,1,1,1,NA,1,0,1,1,NA,1,3,3,183,3,12,"0","sub-001",1,13,3,"out-group","in-group","out-group","both_high"
"184",184,184,184,184,14,"underestimator","overestimator",2,1,4,1,1.3153202,46,1,4,3,0,NA,0,0,NA,0,NA,4,4,184,4,14,"1","sub-001",1,15,4,"out-group","in-group","out-group","different"
"185",185,185,185,185,41,"underestimator","overestimator",2,4,1,NA,NA,70,1,0,3,0,NA,0,NA,NA,NA,NA,5,5,185,5,41,"None","sub-001",1,42,5,"out-group","in-group","out-group","different"
"186",186,186,186,186,31,"underestimator","overestimator",2,3,1,0,1.1169315,33,1,3,2,0,NA,0,1,NA,0,NA,6,6,186,6,31,"0","sub-001",1,32,6,"out-group","in-group","out-group","different"
"187",187,187,187,187,42,"underestimator","overestimator",2,4,2,0,1.2537472,44,1,4,5,0,NA,0,1,NA,0,NA,7,7,187,7,42,"0","sub-001",1,43,7,"out-group","in-group","out-group","different"
"188",188,188,188,188,12,"underestimator","overestimator",2,1,2,0,1.194542,49,1,1,1,NA,1,0,1,1,NA,1,8,8,188,8,12,"0","sub-001",1,13,8,"out-group","in-group","out-group","both_high"
"189",189,189,189,189,13,"underestimator","overestimator",2,1,3,1,0.6924689,39,1,3,2,0,NA,0,0,NA,0,NA,9,9,189,9,13,"1","sub-001",1,14,9,"out-group","in-group","out-group","different"
"190",190,190,190,190,32,"underestimator","overestimator",2,3,2,0,1.0950318,46,1,3,4,0,NA,0,1,NA,0,NA,10,10,190,10,32,"0","sub-001",1,33,10,"out-group","in-group","out-group","different"
"191",191,191,191,191,34,"underestimator","overestimator",2,3,4,0,0.5005245,65,1,3,6,NA,1,0,1,-1,NA,1,11,11,191,11,34,"0","sub-001",1,35,11,"out-group","in-group","out-group","both_low"
"192",192,192,192,192,41,"underestimator","overestimator",2,4,1,NA,NA,53,1,0,3,0,NA,0,NA,NA,NA,NA,12,12,192,12,41,"None","sub-001",1,42,12,"out-group","in-group","out-group","different"
"193",193,193,193,193,34,"underestimator","overestimator",2,3,4,0,0.8263975,73,1,3,6,NA,1,0,1,-1,NA,1,13,13,193,13,34,"0","sub-001",1,35,13,"out-group","in-group","out-group","both_low"
"194",194,194,194,194,21,"underestimator","overestimator",2,2,1,0,1.4237354,66,1,2,1,NA,0,0,1,1,NA,0,14,14,194,14,21,"0","sub-001",1,22,14,"out-group","in-group","out-group","both_high"
"195",195,195,195,195,34,"underestimator","overestimator",2,3,4,0,1.0224094,43,1,3,6,NA,1,0,1,-1,NA,1,15,15,195,15,34,"0","sub-001",1,35,15,"out-group","in-group","out-group","both_low"
"196",196,196,196,196,42,"underestimator","overestimator",2,4,2,0,0.9055883,28,1,4,5,0,NA,0,1,NA,0,NA,16,16,196,16,42,"0","sub-001",1,43,16,"out-group","in-group","out-group","different"
"197",197,197,197,197,24,"underestimator","overestimator",2,2,4,0,1.3604197,62,1,2,5,1,NA,0,1,NA,1,NA,17,17,197,17,24,"0","sub-001",1,25,17,"out-group","in-group","out-group","different"
"198",198,198,198,198,42,"underestimator","overestimator",2,4,2,1,1.3248335,66,1,2,5,1,NA,0,0,NA,1,NA,18,18,198,18,42,"1","sub-001",1,43,18,"out-group","in-group","out-group","different"
"199",199,199,199,199,32,"underestimator","overestimator",2,3,2,1,1.1643354,54,1,2,4,1,NA,0,0,NA,1,NA,19,19,199,19,32,"1","sub-001",1,33,19,"out-group","in-group","out-group","different"
"200",200,200,200,200,23,"underestimator","overestimator",2,2,3,1,1.4198213,43,1,3,4,0,NA,0,0,NA,0,NA,20,20,200,20,23,"1","sub-001",1,24,20,"out-group","in-group","out-group","different"
"201",201,201,201,201,24,"underestimator","overestimator",2,2,4,0,1.0916806,54,1,2,5,1,NA,0,1,NA,1,NA,21,21,201,21,24,"0","sub-001",1,25,21,"out-group","in-group","out-group","different"
"202",202,202,202,202,24,"underestimator","overestimator",2,2,4,0,1.0859155,60,1,2,5,1,NA,0,1,NA,1,NA,22,22,202,22,24,"0","sub-001",1,25,22,"out-group","in-group","out-group","different"
"203",203,203,203,203,24,"underestimator","overestimator",2,2,4,0,0.6120797,68,1,2,5,1,NA,0,1,NA,1,NA,23,23,203,23,24,"0","sub-001",1,25,23,"out-group","in-group","out-group","different"
"204",204,204,204,204,12,"underestimator","overestimator",2,1,2,0,1.3937656,81,1,1,1,NA,1,0,1,1,NA,1,24,24,204,24,12,"0","sub-001",1,13,24,"out-group","in-group","out-group","both_high"
"205",205,205,205,205,24,"underestimator","overestimator",2,2,4,0,1.0755762,61,1,2,5,1,NA,0,1,NA,1,NA,25,25,205,25,24,"0","sub-001",1,25,25,"out-group","in-group","out-group","different"
"206",206,206,206,206,23,"underestimator","overestimator",2,2,3,NA,NA,42,1,0,4,0,NA,0,NA,NA,NA,NA,26,26,206,26,23,"None","sub-001",1,24,26,"out-group","in-group","out-group","different"
"207",207,207,207,207,14,"underestimator","overestimator",2,1,4,0,1.1192056,47,1,1,3,1,NA,0,1,NA,1,NA,27,27,207,27,14,"0","sub-001",1,15,27,"out-group","in-group","out-group","different"
"208",208,208,208,208,41,"underestimator","overestimator",2,4,1,1,0.7316034,65,1,1,3,1,NA,0,0,NA,1,NA,28,28,208,28,41,"1","sub-001",1,42,28,"out-group","in-group","out-group","different"
"209",209,209,209,209,24,"underestimator","overestimator",2,2,4,0,0.8416239,52,1,2,5,1,NA,0,1,NA,1,NA,29,29,209,29,24,"0","sub-001",1,25,29,"out-group","in-group","out-group","different"
"210",210,210,210,210,31,"underestimator","overestimator",2,3,1,1,0.8288265,62,1,1,2,1,NA,0,0,NA,1,NA,30,30,210,30,31,"1","sub-001",1,32,30,"out-group","in-group","out-group","different"
"211",211,211,211,211,14,"underestimator","overestimator",2,1,4,0,0.4787831,75,1,1,3,1,NA,0,1,NA,1,NA,31,31,211,31,14,"0","sub-001",1,15,31,"out-group","in-group","out-group","different"
"212",212,212,212,212,21,"underestimator","overestimator",2,2,1,1,0.7552154,75,1,1,1,NA,1,0,0,1,NA,1,32,32,212,32,21,"1","sub-001",1,22,32,"out-group","in-group","out-group","both_high"
"213",213,213,213,213,13,"underestimator","overestimator",2,1,3,0,0.7081337,67,1,1,2,1,NA,0,1,NA,1,NA,33,33,213,33,13,"0","sub-001",1,14,33,"out-group","in-group","out-group","different"
"214",214,214,214,214,34,"underestimator","overestimator",2,3,4,NA,NA,31,1,0,6,NA,NA,0,NA,-1,NA,NA,34,34,214,34,34,"None","sub-001",1,35,34,"out-group","in-group","out-group","both_low"
"215",215,215,215,215,41,"underestimator","overestimator",2,4,1,1,1.2245029,27,1,1,3,1,NA,0,0,NA,1,NA,35,35,215,35,41,"1","sub-001",1,42,35,"out-group","in-group","out-group","different"
"216",216,216,216,216,31,"underestimator","overestimator",2,3,1,1,1.099944,74,1,1,2,1,NA,0,0,NA,1,NA,36,36,216,36,31,"1","sub-001",1,32,36,"out-group","in-group","out-group","different"
"217",217,217,217,217,41,"underestimator","overestimator",2,4,1,1,0.6032081,84,1,1,3,1,NA,0,0,NA,1,NA,37,37,217,37,41,"1","sub-001",1,42,37,"out-group","in-group","out-group","different"
"218",218,218,218,218,23,"underestimator","overestimator",2,2,3,0,1.3056033,63,1,2,4,1,NA,0,1,NA,1,NA,38,38,218,38,23,"0","sub-001",1,24,38,"out-group","in-group","out-group","different"
"219",219,219,219,219,23,"underestimator","overestimator",2,2,3,0,0.6390868,62,1,2,4,1,NA,0,1,NA,1,NA,39,39,219,39,23,"0","sub-001",1,24,39,"out-group","in-group","out-group","different"
"220",220,220,220,220,32,"underestimator","overestimator",2,3,2,1,0.8131246,70,1,2,4,1,NA,0,0,NA,1,NA,40,40,220,40,32,"1","sub-001",1,33,40,"out-group","in-group","out-group","different"
"221",221,221,221,221,12,"underestimator","overestimator",2,1,2,1,0.4870325,67,1,2,1,NA,0,0,0,1,NA,0,41,41,221,41,12,"1","sub-001",1,13,41,"out-group","in-group","out-group","both_high"
"222",222,222,222,222,31,"underestimator","overestimator",2,3,1,1,1.0155351,71,1,1,2,1,NA,0,0,NA,1,NA,42,42,222,42,31,"1","sub-001",1,32,42,"out-group","in-group","out-group","different"
"223",223,223,223,223,21,"underestimator","overestimator",2,2,1,0,1.1036704,68,1,2,1,NA,0,0,1,1,NA,0,43,43,223,43,21,"0","sub-001",1,22,43,"out-group","in-group","out-group","both_high"
"224",224,224,224,224,23,"underestimator","overestimator",2,2,3,0,0.7671545,61,1,2,4,1,NA,0,1,NA,1,NA,44,44,224,44,23,"0","sub-001",1,24,44,"out-group","in-group","out-group","different"
"225",225,225,225,225,23,"underestimator","overestimator",2,2,3,0,0.655714,63,1,2,4,1,NA,0,1,NA,1,NA,45,45,225,45,23,"0","sub-001",1,24,45,"out-group","in-group","out-group","different"
"226",226,226,226,226,12,"underestimator","overestimator",2,1,2,1,0.8631631,65,1,2,1,NA,0,0,0,1,NA,0,46,46,226,46,12,"1","sub-001",1,13,46,"out-group","in-group","out-group","both_high"
"227",227,227,227,227,34,"underestimator","overestimator",2,3,4,NA,NA,44,1,0,6,NA,NA,0,NA,-1,NA,NA,47,47,227,47,34,"None","sub-001",1,35,47,"out-group","in-group","out-group","both_low"
"228",228,228,228,228,12,"underestimator","overestimator",2,1,2,1,0.9949645,51,1,2,1,NA,0,0,0,1,NA,0,48,48,228,48,12,"1","sub-001",1,13,48,"out-group","in-group","out-group","both_high"
"229",229,229,229,229,34,"underestimator","overestimator",2,3,4,1,1.1781494,45,1,4,6,NA,0,0,0,-1,NA,0,49,49,229,49,34,"1","sub-001",1,35,49,"out-group","in-group","out-group","both_low"
"230",230,230,230,230,32,"underestimator","overestimator",2,3,2,1,0.8662813,70,1,2,4,1,NA,0,0,NA,1,NA,50,50,230,50,32,"1","sub-001",1,33,50,"out-group","in-group","out-group","different"
"231",231,231,231,231,31,"underestimator","overestimator",2,3,1,1,0.5762999,76,1,1,2,1,NA,0,0,NA,1,NA,51,51,231,51,31,"1","sub-001",1,32,51,"out-group","in-group","out-group","different"
"232",232,232,232,232,32,"underestimator","overestimator",2,3,2,1,1.3110544,62,1,2,4,1,NA,0,0,NA,1,NA,52,52,232,52,32,"1","sub-001",1,33,52,"out-group","in-group","out-group","different"
"233",233,233,233,233,21,"underestimator","overestimator",2,2,1,1,0.8949827,68,1,1,1,NA,1,0,0,1,NA,1,53,53,233,53,21,"1","sub-001",1,22,53,"out-group","in-group","out-group","both_high"
"234",234,234,234,234,23,"underestimator","overestimator",2,2,3,0,0.6665217,59,1,2,4,1,NA,0,1,NA,1,NA,54,54,234,54,23,"0","sub-001",1,24,54,"out-group","in-group","out-group","different"
"235",235,235,235,235,12,"underestimator","overestimator",2,1,2,0,0.9716925,66,1,1,1,NA,1,0,1,1,NA,1,55,55,235,55,12,"0","sub-001",1,13,55,"out-group","in-group","out-group","both_high"
"236",236,236,236,236,32,"underestimator","overestimator",2,3,2,1,0.7030163,56,1,2,4,1,NA,0,0,NA,1,NA,56,56,236,56,32,"1","sub-001",1,33,56,"out-group","in-group","out-group","different"
"237",237,237,237,237,42,"underestimator","overestimator",2,4,2,1,0.6701076,61,1,2,5,1,NA,0,0,NA,1,NA,57,57,237,57,42,"1","sub-001",1,43,57,"out-group","in-group","out-group","different"
"238",238,238,238,238,31,"underestimator","overestimator",2,3,1,1,0.7525598,62,1,1,2,1,NA,0,0,NA,1,NA,58,58,238,58,31,"1","sub-001",1,32,58,"out-group","in-group","out-group","different"
"239",239,239,239,239,24,"underestimator","overestimator",2,2,4,0,0.4916687,55,1,2,5,1,NA,0,1,NA,1,NA,59,59,239,59,24,"0","sub-001",1,25,59,"out-group","in-group","out-group","different"
"240",240,240,240,240,42,"underestimator","overestimator",2,4,2,1,0.6601491,69,1,2,5,1,NA,0,0,NA,1,NA,60,60,240,60,42,"1","sub-001",1,43,60,"out-group","in-group","out-group","different"
"241",241,241,241,241,13,"underestimator","overestimator",2,1,3,0,0.8006768,66,1,1,2,1,NA,0,1,NA,1,NA,61,61,241,61,13,"0","sub-001",1,14,61,"out-group","in-group","out-group","different"
"242",242,242,242,242,12,"underestimator","overestimator",2,1,2,1,0.6130788,56,1,2,1,NA,0,0,0,1,NA,0,62,62,242,62,12,"1","sub-001",1,13,62,"out-group","in-group","out-group","both_high"
"243",243,243,243,243,42,"underestimator","overestimator",2,4,2,1,0.5552085,56,1,2,5,1,NA,0,0,NA,1,NA,63,63,243,63,42,"1","sub-001",1,43,63,"out-group","in-group","out-group","different"
"244",244,244,244,244,42,"underestimator","overestimator",2,4,2,1,0.542366,69,1,2,5,1,NA,0,0,NA,1,NA,64,64,244,64,42,"1","sub-001",1,43,64,"out-group","in-group","out-group","different"
"245",245,245,245,245,31,"underestimator","overestimator",2,3,1,1,0.3892414,68,1,1,2,1,NA,0,0,NA,1,NA,65,65,245,65,31,"1","sub-001",1,32,65,"out-group","in-group","out-group","different"
"246",246,246,246,246,43,"underestimator","overestimator",2,4,3,0,1.2355693,43,1,4,6,NA,0,0,1,-1,NA,0,66,66,246,66,43,"0","sub-001",1,44,66,"out-group","in-group","out-group","both_low"
"247",247,247,247,247,21,"underestimator","overestimator",2,2,1,1,1.1188699,71,1,1,1,NA,1,0,0,1,NA,1,67,67,247,67,21,"1","sub-001",1,22,67,"out-group","in-group","out-group","both_high"
"248",248,248,248,248,13,"underestimator","overestimator",2,1,3,0,1.3294727,78,1,1,2,1,NA,0,1,NA,1,NA,68,68,248,68,13,"0","sub-001",1,14,68,"out-group","in-group","out-group","different"
"249",249,249,249,249,34,"underestimator","overestimator",2,3,4,NA,NA,30,1,0,6,NA,NA,0,NA,-1,NA,NA,69,69,249,69,34,"None","sub-001",1,35,69,"out-group","in-group","out-group","both_low"
"250",250,250,250,250,43,"underestimator","overestimator",2,4,3,1,1.0485906,64,1,3,6,NA,1,0,0,-1,NA,1,70,70,250,70,43,"1","sub-001",1,44,70,"out-group","in-group","out-group","both_low"
"251",251,251,251,251,13,"underestimator","overestimator",2,1,3,0,0.8617114,44,1,1,2,1,NA,0,1,NA,1,NA,71,71,251,71,13,"0","sub-001",1,14,71,"out-group","in-group","out-group","different"
"252",252,252,252,252,32,"underestimator","overestimator",2,3,2,1,1.1044564,63,1,2,4,1,NA,0,0,NA,1,NA,72,72,252,72,32,"1","sub-001",1,33,72,"out-group","in-group","out-group","different"
"253",253,253,253,253,41,"underestimator","overestimator",2,4,1,1,1.0219455,82,1,1,3,1,NA,0,0,NA,1,NA,73,73,253,73,41,"1","sub-001",1,42,73,"out-group","in-group","out-group","different"
"254",254,254,254,254,41,"underestimator","overestimator",2,4,1,1,0.5643871,69,1,1,3,1,NA,0,0,NA,1,NA,74,74,254,74,41,"1","sub-001",1,42,74,"out-group","in-group","out-group","different"
"255",255,255,255,255,41,"underestimator","overestimator",2,4,1,1,1.2115886,74,1,1,3,1,NA,0,0,NA,1,NA,75,75,255,75,41,"1","sub-001",1,42,75,"out-group","in-group","out-group","different"
"256",256,256,256,256,42,"underestimator","overestimator",2,4,2,1,0.8038804,65,1,2,5,1,NA,0,0,NA,1,NA,76,76,256,76,42,"1","sub-001",1,43,76,"out-group","in-group","out-group","different"
"257",257,257,257,257,21,"underestimator","overestimator",2,2,1,1,0.7186826,98,1,1,1,NA,1,0,0,1,NA,1,77,77,257,77,21,"1","sub-001",1,22,77,"out-group","in-group","out-group","both_high"
"258",258,258,258,258,31,"underestimator","overestimator",2,3,1,1,0.4367156,56,1,1,2,1,NA,0,0,NA,1,NA,78,78,258,78,31,"1","sub-001",1,32,78,"out-group","in-group","out-group","different"
"259",259,259,259,259,43,"underestimator","overestimator",2,4,3,NA,NA,27,1,0,6,NA,NA,0,NA,-1,NA,NA,79,79,259,79,43,"None","sub-001",1,44,79,"out-group","in-group","out-group","both_low"
"260",260,260,260,260,43,"underestimator","overestimator",2,4,3,1,0.4774475,26,1,3,6,NA,1,0,0,-1,NA,1,80,80,260,80,43,"1","sub-001",1,44,80,"out-group","in-group","out-group","both_low"
"261",261,261,261,261,32,"underestimator","overestimator",2,3,2,1,1.0425557,71,1,2,4,1,NA,0,0,NA,1,NA,81,81,261,81,32,"1","sub-001",1,33,81,"out-group","in-group","out-group","different"
"262",262,262,262,262,14,"underestimator","overestimator",2,1,4,0,0.7908492,65,1,1,3,1,NA,0,1,NA,1,NA,82,82,262,82,14,"0","sub-001",1,15,82,"out-group","in-group","out-group","different"
"263",263,263,263,263,41,"underestimator","overestimator",2,4,1,1,0.9468513,63,1,1,3,1,NA,0,0,NA,1,NA,83,83,263,83,41,"1","sub-001",1,42,83,"out-group","in-group","out-group","different"
"264",264,264,264,264,31,"underestimator","overestimator",2,3,1,1,0.4154214,67,1,1,2,1,NA,0,0,NA,1,NA,84,84,264,84,31,"1","sub-001",1,32,84,"out-group","in-group","out-group","different"
"265",265,265,265,265,23,"underestimator","overestimator",2,2,3,0,1.1106433,52,1,2,4,1,NA,0,1,NA,1,NA,85,85,265,85,23,"0","sub-001",1,24,85,"out-group","in-group","out-group","different"
"266",266,266,266,266,14,"underestimator","overestimator",2,1,4,0,1.030442,72,1,1,3,1,NA,0,1,NA,1,NA,86,86,266,86,14,"0","sub-001",1,15,86,"out-group","in-group","out-group","different"
"267",267,267,267,267,21,"underestimator","overestimator",2,2,1,NA,NA,71,1,0,1,NA,NA,0,NA,1,NA,NA,87,87,267,87,21,"None","sub-001",1,22,87,"out-group","in-group","out-group","both_high"
"268",268,268,268,268,42,"underestimator","overestimator",2,4,2,1,1.1245004,57,1,2,5,1,NA,0,0,NA,1,NA,88,88,268,88,42,"1","sub-001",1,43,88,"out-group","in-group","out-group","different"
"269",269,269,269,269,42,"underestimator","overestimator",2,4,2,1,0.7407437,52,1,2,5,1,NA,0,0,NA,1,NA,89,89,269,89,42,"1","sub-001",1,43,89,"out-group","in-group","out-group","different"
"270",270,270,270,270,23,"underestimator","overestimator",2,2,3,0,0.8417579,62,1,2,4,1,NA,0,1,NA,1,NA,90,90,270,90,23,"0","sub-001",1,24,90,"out-group","in-group","out-group","different"
"271",271,271,271,271,21,"underestimator","overestimator",2,2,1,0,0.7238899,58,1,2,1,NA,0,0,1,1,NA,0,91,91,271,91,21,"0","sub-001",1,22,91,"out-group","in-group","out-group","both_high"
"272",272,272,272,272,13,"underestimator","overestimator",2,1,3,0,0.9164444,91,1,1,2,1,NA,0,1,NA,1,NA,92,92,272,92,13,"0","sub-001",1,14,92,"out-group","in-group","out-group","different"
"273",273,273,273,273,34,"underestimator","overestimator",2,3,4,NA,NA,41,1,0,6,NA,NA,0,NA,-1,NA,NA,93,93,273,93,34,"None","sub-001",1,35,93,"out-group","in-group","out-group","both_low"
"274",274,274,274,274,14,"underestimator","overestimator",2,1,4,0,0.9038807,93,1,1,3,1,NA,0,1,NA,1,NA,94,94,274,94,14,"0","sub-001",1,15,94,"out-group","in-group","out-group","different"
"275",275,275,275,275,43,"underestimator","overestimator",2,4,3,0,1.469019,42,1,4,6,NA,0,0,1,-1,NA,0,95,95,275,95,43,"0","sub-001",1,44,95,"out-group","in-group","out-group","both_low"
"276",276,276,276,276,12,"underestimator","overestimator",2,1,2,1,0.7756114,58,1,2,1,NA,0,0,0,1,NA,0,96,96,276,96,12,"1","sub-001",1,13,96,"out-group","in-group","out-group","both_high"
"277",277,277,277,277,14,"underestimator","overestimator",2,1,4,0,0.5654389,73,1,1,3,1,NA,0,1,NA,1,NA,97,97,277,97,14,"0","sub-001",1,15,97,"out-group","in-group","out-group","different"
"278",278,278,278,278,32,"underestimator","overestimator",2,3,2,1,0.7031975,53,1,2,4,1,NA,0,0,NA,1,NA,98,98,278,98,32,"1","sub-001",1,33,98,"out-group","in-group","out-group","different"
"279",279,279,279,279,31,"underestimator","overestimator",2,3,1,1,0.9413226,60,1,1,2,1,NA,0,0,NA,1,NA,99,99,279,99,31,"1","sub-001",1,32,99,"out-group","in-group","out-group","different"
"280",280,280,280,280,14,"underestimator","overestimator",2,1,4,0,0.611788,51,1,1,3,1,NA,0,1,NA,1,NA,100,100,280,100,14,"0","sub-001",1,15,100,"out-group","in-group","out-group","different"
"281",281,281,281,281,41,"underestimator","overestimator",2,4,1,1,0.4327372,84,1,1,3,1,NA,0,0,NA,1,NA,101,101,281,101,41,"1","sub-001",1,42,101,"out-group","in-group","out-group","different"
"282",282,282,282,282,42,"underestimator","overestimator",2,4,2,1,0.673151,66,1,2,5,1,NA,0,0,NA,1,NA,102,102,282,102,42,"1","sub-001",1,43,102,"out-group","in-group","out-group","different"
"283",283,283,283,283,13,"underestimator","overestimator",2,1,3,0,1.1079501,79,1,1,2,1,NA,0,1,NA,1,NA,103,103,283,103,13,"0","sub-001",1,14,103,"out-group","in-group","out-group","different"
"284",284,284,284,284,43,"underestimator","overestimator",2,4,3,1,1.1319813,43,1,3,6,NA,1,0,0,-1,NA,1,104,104,284,104,43,"1","sub-001",1,44,104,"out-group","in-group","out-group","both_low"
"285",285,285,285,285,31,"underestimator","overestimator",2,3,1,1,0.8969555,62,1,1,2,1,NA,0,0,NA,1,NA,105,105,285,105,31,"1","sub-001",1,32,105,"out-group","in-group","out-group","different"
"286",286,286,286,286,13,"underestimator","overestimator",2,1,3,0,0.525805,63,1,1,2,1,NA,0,1,NA,1,NA,106,106,286,106,13,"0","sub-001",1,14,106,"out-group","in-group","out-group","different"
"287",287,287,287,287,13,"underestimator","overestimator",2,1,3,0,0.4247287,72,1,1,2,1,NA,0,1,NA,1,NA,107,107,287,107,13,"0","sub-001",1,14,107,"out-group","in-group","out-group","different"
"288",288,288,288,288,14,"underestimator","overestimator",2,1,4,0,0.6311554,76,1,1,3,1,NA,0,1,NA,1,NA,108,108,288,108,14,"0","sub-001",1,15,108,"out-group","in-group","out-group","different"
"289",289,289,289,289,43,"underestimator","overestimator",2,4,3,1,1.2154636,54,1,3,6,NA,1,0,0,-1,NA,1,109,109,289,109,43,"1","sub-001",1,44,109,"out-group","in-group","out-group","both_low"
"290",290,290,290,290,32,"underestimator","overestimator",2,3,2,1,0.9035357,63,1,2,4,1,NA,0,0,NA,1,NA,110,110,290,110,32,"1","sub-001",1,33,110,"out-group","in-group","out-group","different"
"291",291,291,291,291,43,"underestimator","overestimator",2,4,3,1,1.337736,25,1,3,6,NA,1,0,0,-1,NA,1,111,111,291,111,43,"1","sub-001",1,44,111,"out-group","in-group","out-group","both_low"
"292",292,292,292,292,23,"underestimator","overestimator",2,2,3,0,0.8251332,61,1,2,4,1,NA,0,1,NA,1,NA,112,112,292,112,23,"0","sub-001",1,24,112,"out-group","in-group","out-group","different"
"293",293,293,293,293,43,"underestimator","overestimator",2,4,3,0,0.870648,33,1,4,6,NA,0,0,1,-1,NA,0,113,113,293,113,43,"0","sub-001",1,44,113,"out-group","in-group","out-group","both_low"
"294",294,294,294,294,13,"underestimator","overestimator",2,1,3,0,1.1144992,69,1,1,2,1,NA,0,1,NA,1,NA,114,114,294,114,13,"0","sub-001",1,14,114,"out-group","in-group","out-group","different"
"295",295,295,295,295,24,"underestimator","overestimator",2,2,4,0,1.1995797,56,1,2,5,1,NA,0,1,NA,1,NA,115,115,295,115,24,"0","sub-001",1,25,115,"out-group","in-group","out-group","different"
"296",296,296,296,296,41,"underestimator","overestimator",2,4,1,1,0.636505,73,1,1,3,1,NA,0,0,NA,1,NA,116,116,296,116,41,"1","sub-001",1,42,116,"out-group","in-group","out-group","different"
"297",297,297,297,297,24,"underestimator","overestimator",2,2,4,0,0.7723261,65,1,2,5,1,NA,0,1,NA,1,NA,117,117,297,117,24,"0","sub-001",1,25,117,"out-group","in-group","out-group","different"
"298",298,298,298,298,41,"underestimator","overestimator",2,4,1,1,1.2162664,62,1,1,3,1,NA,0,0,NA,1,NA,118,118,298,118,41,"1","sub-001",1,42,118,"out-group","in-group","out-group","different"
"299",299,299,299,299,23,"underestimator","overestimator",2,2,3,0,1.0677189,62,1,2,4,1,NA,0,1,NA,1,NA,119,119,299,119,23,"0","sub-001",1,24,119,"out-group","in-group","out-group","different"
"300",300,300,300,300,23,"underestimator","overestimator",2,2,3,0,0.8491669,62,1,2,4,1,NA,0,1,NA,1,NA,120,120,300,120,23,"0","sub-001",1,24,120,"out-group","in-group","out-group","different"
"301",301,301,301,301,43,"underestimator","overestimator",2,4,3,0,1.2568034,38,1,4,6,NA,0,0,1,-1,NA,0,121,121,301,121,43,"0","sub-001",1,44,121,"out-group","in-group","out-group","both_low"
"302",302,302,302,302,41,"underestimator","overestimator",2,4,1,1,0.5887945,93,1,1,3,1,NA,0,0,NA,1,NA,122,122,302,122,41,"1","sub-001",1,42,122,"out-group","in-group","out-group","different"
"303",303,303,303,303,31,"underestimator","overestimator",2,3,1,1,0.5395642,52,1,1,2,1,NA,0,0,NA,1,NA,123,123,303,123,31,"1","sub-001",1,32,123,"out-group","in-group","out-group","different"
"304",304,304,304,304,21,"underestimator","overestimator",2,2,1,1,0.4034899,62,1,1,1,NA,1,0,0,1,NA,1,124,124,304,124,21,"1","sub-001",1,22,124,"out-group","in-group","out-group","both_high"
"305",305,305,305,305,34,"underestimator","overestimator",2,3,4,1,1.413521,41,1,4,6,NA,0,0,0,-1,NA,0,125,125,305,125,34,"1","sub-001",1,35,125,"out-group","in-group","out-group","both_low"
"306",306,306,306,306,31,"underestimator","overestimator",2,3,1,1,0.8992998,67,1,1,2,1,NA,0,0,NA,1,NA,126,126,306,126,31,"1","sub-001",1,32,126,"out-group","in-group","out-group","different"
"307",307,307,307,307,12,"underestimator","overestimator",2,1,2,1,0.883148,60,1,2,1,NA,0,0,0,1,NA,0,127,127,307,127,12,"1","sub-001",1,13,127,"out-group","in-group","out-group","both_high"
"308",308,308,308,308,12,"underestimator","overestimator",2,1,2,0,0.8117568,64,1,1,1,NA,1,0,1,1,NA,1,128,128,308,128,12,"0","sub-001",1,13,128,"out-group","in-group","out-group","both_high"
"309",309,309,309,309,21,"underestimator","overestimator",2,2,1,1,0.7751467,74,1,1,1,NA,1,0,0,1,NA,1,129,129,309,129,21,"1","sub-001",1,22,129,"out-group","in-group","out-group","both_high"
"310",310,310,310,310,24,"underestimator","overestimator",2,2,4,0,0.9263483,60,1,2,5,1,NA,0,1,NA,1,NA,130,130,310,130,24,"0","sub-001",1,25,130,"out-group","in-group","out-group","different"
"311",311,311,311,311,13,"underestimator","overestimator",2,1,3,0,1.0484776,64,1,1,2,1,NA,0,1,NA,1,NA,131,131,311,131,13,"0","sub-001",1,14,131,"out-group","in-group","out-group","different"
"312",312,312,312,312,31,"underestimator","overestimator",2,3,1,1,0.6700891,48,1,1,2,1,NA,0,0,NA,1,NA,132,132,312,132,31,"1","sub-001",1,32,132,"out-group","in-group","out-group","different"
"313",313,313,313,313,43,"underestimator","overestimator",2,4,3,NA,NA,48,1,0,6,NA,NA,0,NA,-1,NA,NA,133,133,313,133,43,"None","sub-001",1,44,133,"out-group","in-group","out-group","both_low"
"314",314,314,314,314,12,"underestimator","overestimator",2,1,2,0,1.133276,65,1,1,1,NA,1,0,1,1,NA,1,134,134,314,134,12,"0","sub-001",1,13,134,"out-group","in-group","out-group","both_high"
"315",315,315,315,315,23,"underestimator","overestimator",2,2,3,0,1.1483534,60,1,2,4,1,NA,0,1,NA,1,NA,135,135,315,135,23,"0","sub-001",1,24,135,"out-group","in-group","out-group","different"
"316",316,316,316,316,34,"underestimator","overestimator",2,3,4,0,1.066752,54,1,3,6,NA,1,0,1,-1,NA,1,136,136,316,136,34,"0","sub-001",1,35,136,"out-group","in-group","out-group","both_low"
"317",317,317,317,317,14,"underestimator","overestimator",2,1,4,0,0.9028622,65,1,1,3,1,NA,0,1,NA,1,NA,137,137,317,137,14,"0","sub-001",1,15,137,"out-group","in-group","out-group","different"
"318",318,318,318,318,34,"underestimator","overestimator",2,3,4,0,1.2783282,61,1,3,6,NA,1,0,1,-1,NA,1,138,138,318,138,34,"0","sub-001",1,35,138,"out-group","in-group","out-group","both_low"
"319",319,319,319,319,23,"underestimator","overestimator",2,2,3,0,1.1494454,60,1,2,4,1,NA,0,1,NA,1,NA,139,139,319,139,23,"0","sub-001",1,24,139,"out-group","in-group","out-group","different"
"320",320,320,320,320,21,"underestimator","overestimator",2,2,1,1,1.0748241,63,1,1,1,NA,1,0,0,1,NA,1,140,140,320,140,21,"1","sub-001",1,22,140,"out-group","in-group","out-group","both_high"
"321",321,321,321,321,34,"underestimator","overestimator",2,3,4,0,1.1169064,35,1,3,6,NA,1,0,1,-1,NA,1,141,141,321,141,34,"0","sub-001",1,35,141,"out-group","in-group","out-group","both_low"
"322",322,322,322,322,14,"underestimator","overestimator",2,1,4,0,0.7224786,78,1,1,3,1,NA,0,1,NA,1,NA,142,142,322,142,14,"0","sub-001",1,15,142,"out-group","in-group","out-group","different"
"323",323,323,323,323,14,"underestimator","overestimator",2,1,4,0,0.6396259,64,1,1,3,1,NA,0,1,NA,1,NA,143,143,323,143,14,"0","sub-001",1,15,143,"out-group","in-group","out-group","different"
"324",324,324,324,324,43,"underestimator","overestimator",2,4,3,1,1.1315263,21,1,3,6,NA,1,0,0,-1,NA,1,144,144,324,144,43,"1","sub-001",1,44,144,"out-group","in-group","out-group","both_low"
"325",325,325,325,325,42,"underestimator","overestimator",2,4,2,1,1.0325814,53,1,2,5,1,NA,0,0,NA,1,NA,145,145,325,145,42,"1","sub-001",1,43,145,"out-group","in-group","out-group","different"
"326",326,326,326,326,13,"underestimator","overestimator",2,1,3,1,1.0534614,34,1,3,2,0,NA,0,0,NA,0,NA,146,146,326,146,13,"1","sub-001",1,14,146,"out-group","in-group","out-group","different"
"327",327,327,327,327,13,"underestimator","overestimator",2,1,3,0,0.6896707,63,1,1,2,1,NA,0,1,NA,1,NA,147,147,327,147,13,"0","sub-001",1,14,147,"out-group","in-group","out-group","different"
"328",328,328,328,328,43,"underestimator","overestimator",2,4,3,1,1.1629369,37,1,3,6,NA,1,0,0,-1,NA,1,148,148,328,148,43,"1","sub-001",1,44,148,"out-group","in-group","out-group","both_low"
"329",329,329,329,329,21,"underestimator","overestimator",2,2,1,1,0.8498172,61,1,1,1,NA,1,0,0,1,NA,1,149,149,329,149,21,"1","sub-001",1,22,149,"out-group","in-group","out-group","both_high"
"330",330,330,330,330,21,"underestimator","overestimator",2,2,1,1,0.5424275,50,1,1,1,NA,1,0,0,1,NA,1,150,150,330,150,21,"1","sub-001",1,22,150,"out-group","in-group","out-group","both_high"
"331",331,331,331,331,13,"underestimator","overestimator",2,1,3,0,0.5908209,76,1,1,2,1,NA,0,1,NA,1,NA,151,151,331,151,13,"0","sub-001",1,14,151,"out-group","in-group","out-group","different"
"332",332,332,332,332,14,"underestimator","overestimator",2,1,4,0,0.686087,74,1,1,3,1,NA,0,1,NA,1,NA,152,152,332,152,14,"0","sub-001",1,15,152,"out-group","in-group","out-group","different"
"333",333,333,333,333,24,"underestimator","overestimator",2,2,4,0,0.991936,58,1,2,5,1,NA,0,1,NA,1,NA,153,153,333,153,24,"0","sub-001",1,25,153,"out-group","in-group","out-group","different"
"334",334,334,334,334,14,"underestimator","overestimator",2,1,4,0,0.9557164,78,1,1,3,1,NA,0,1,NA,1,NA,154,154,334,154,14,"0","sub-001",1,15,154,"out-group","in-group","out-group","different"
"335",335,335,335,335,43,"underestimator","overestimator",2,4,3,1,1.1845064,63,1,3,6,NA,1,0,0,-1,NA,1,155,155,335,155,43,"1","sub-001",1,44,155,"out-group","in-group","out-group","both_low"
"336",336,336,336,336,12,"underestimator","overestimator",2,1,2,0,0.6584205,48,1,1,1,NA,1,0,1,1,NA,1,156,156,336,156,12,"0","sub-001",1,13,156,"out-group","in-group","out-group","both_high"
"337",337,337,337,337,42,"underestimator","overestimator",2,4,2,1,1.0253698,49,1,2,5,1,NA,0,0,NA,1,NA,157,157,337,157,42,"1","sub-001",1,43,157,"out-group","in-group","out-group","different"
"338",338,338,338,338,41,"underestimator","overestimator",2,4,1,1,0.7273618,93,1,1,3,1,NA,0,0,NA,1,NA,158,158,338,158,41,"1","sub-001",1,42,158,"out-group","in-group","out-group","different"
"339",339,339,339,339,42,"underestimator","overestimator",2,4,2,1,0.8912814,58,1,2,5,1,NA,0,0,NA,1,NA,159,159,339,159,42,"1","sub-001",1,43,159,"out-group","in-group","out-group","different"
"340",340,340,340,340,13,"underestimator","overestimator",2,1,3,0,0.6911297,56,1,1,2,1,NA,0,1,NA,1,NA,160,160,340,160,13,"0","sub-001",1,14,160,"out-group","in-group","out-group","different"
"341",341,341,341,341,12,"underestimator","overestimator",2,1,2,0,0.9267386,48,1,1,1,NA,1,0,1,1,NA,1,161,161,341,161,12,"0","sub-001",1,13,161,"out-group","in-group","out-group","both_high"
"342",342,342,342,342,24,"underestimator","overestimator",2,2,4,0,1.1536418,63,1,2,5,1,NA,0,1,NA,1,NA,162,162,342,162,24,"0","sub-001",1,25,162,"out-group","in-group","out-group","different"
"343",343,343,343,343,32,"underestimator","overestimator",2,3,2,1,0.8826205,61,1,2,4,1,NA,0,0,NA,1,NA,163,163,343,163,32,"1","sub-001",1,33,163,"out-group","in-group","out-group","different"
"344",344,344,344,344,23,"underestimator","overestimator",2,2,3,0,0.6165292,61,1,2,4,1,NA,0,1,NA,1,NA,164,164,344,164,23,"0","sub-001",1,24,164,"out-group","in-group","out-group","different"
"345",345,345,345,345,31,"underestimator","overestimator",2,3,1,1,0.7186764,79,1,1,2,1,NA,0,0,NA,1,NA,165,165,345,165,31,"1","sub-001",1,32,165,"out-group","in-group","out-group","different"
"346",346,346,346,346,21,"underestimator","overestimator",2,2,1,1,0.5828255,72,1,1,1,NA,1,0,0,1,NA,1,166,166,346,166,21,"1","sub-001",1,22,166,"out-group","in-group","out-group","both_high"
"347",347,347,347,347,32,"underestimator","overestimator",2,3,2,1,1.223427,56,1,2,4,1,NA,0,0,NA,1,NA,167,167,347,167,32,"1","sub-001",1,33,167,"out-group","in-group","out-group","different"
"348",348,348,348,348,41,"underestimator","overestimator",2,4,1,1,0.9411436,68,1,1,3,1,NA,0,0,NA,1,NA,168,168,348,168,41,"1","sub-001",1,42,168,"out-group","in-group","out-group","different"
"349",349,349,349,349,34,"underestimator","overestimator",2,3,4,0,1.1490761,27,1,3,6,NA,1,0,1,-1,NA,1,169,169,349,169,34,"0","sub-001",1,35,169,"out-group","in-group","out-group","both_low"
"350",350,350,350,350,34,"underestimator","overestimator",2,3,4,0,1.1547441,30,1,3,6,NA,1,0,1,-1,NA,1,170,170,350,170,34,"0","sub-001",1,35,170,"out-group","in-group","out-group","both_low"
"351",351,351,351,351,14,"underestimator","overestimator",2,1,4,0,0.9595287,78,1,1,3,1,NA,0,1,NA,1,NA,171,171,351,171,14,"0","sub-001",1,15,171,"out-group","in-group","out-group","different"
"352",352,352,352,352,32,"underestimator","overestimator",2,3,2,1,0.8276261,60,1,2,4,1,NA,0,0,NA,1,NA,172,172,352,172,32,"1","sub-001",1,33,172,"out-group","in-group","out-group","different"
"353",353,353,353,353,21,"underestimator","overestimator",2,2,1,1,0.7267264,66,1,1,1,NA,1,0,0,1,NA,1,173,173,353,173,21,"1","sub-001",1,22,173,"out-group","in-group","out-group","both_high"
"354",354,354,354,354,24,"underestimator","overestimator",2,2,4,0,1.1053798,65,1,2,5,1,NA,0,1,NA,1,NA,174,174,354,174,24,"0","sub-001",1,25,174,"out-group","in-group","out-group","different"
"355",355,355,355,355,32,"underestimator","overestimator",2,3,2,1,0.6876694,68,1,2,4,1,NA,0,0,NA,1,NA,175,175,355,175,32,"1","sub-001",1,33,175,"out-group","in-group","out-group","different"
"356",356,356,356,356,24,"underestimator","overestimator",2,2,4,0,0.5798829,64,1,2,5,1,NA,0,1,NA,1,NA,176,176,356,176,24,"0","sub-001",1,25,176,"out-group","in-group","out-group","different"
"357",357,357,357,357,42,"underestimator","overestimator",2,4,2,1,0.615452,48,1,2,5,1,NA,0,0,NA,1,NA,177,177,357,177,42,"1","sub-001",1,43,177,"out-group","in-group","out-group","different"
"358",358,358,358,358,12,"underestimator","overestimator",2,1,2,1,0.7179597,60,1,2,1,NA,0,0,0,1,NA,0,178,178,358,178,12,"1","sub-001",1,13,178,"out-group","in-group","out-group","both_high"
"359",359,359,359,359,24,"underestimator","overestimator",2,2,4,0,0.8617052,59,1,2,5,1,NA,0,1,NA,1,NA,179,179,359,179,24,"0","sub-001",1,25,179,"out-group","in-group","out-group","different"
"360",360,360,360,360,43,"underestimator","overestimator",2,4,3,1,1.2405879,18,1,3,6,NA,1,0,0,-1,NA,1,180,180,360,180,43,"1","sub-001",1,44,180,"out-group","in-group","out-group","both_low"
"361",361,361,361,361,42,"underestimator","overestimator",3,4,2,1,1.3025328,49,1,2,5,1,NA,0,0,NA,1,NA,1,1,361,1,42,"1","sub-001",1,43,1,"out-group","in-group","in-group","different"
"362",362,362,362,362,21,"underestimator","overestimator",3,2,1,0,0.8707598,55,1,2,1,NA,0,0,1,1,NA,0,2,2,362,2,21,"0","sub-001",1,22,2,"out-group","in-group","in-group","both_high"
"363",363,363,363,363,12,"underestimator","overestimator",3,1,2,1,1.1093575,62,1,2,1,NA,0,0,0,1,NA,0,3,3,363,3,12,"1","sub-001",1,13,3,"out-group","in-group","in-group","both_high"
"364",364,364,364,364,12,"underestimator","overestimator",3,1,2,1,0.7779864,64,1,2,1,NA,0,0,0,1,NA,0,4,4,364,4,12,"1","sub-001",1,13,4,"out-group","in-group","in-group","both_high"
"365",365,365,365,365,41,"underestimator","overestimator",3,4,1,1,1.4244525,44,1,1,3,1,NA,0,0,NA,1,NA,5,5,365,5,41,"1","sub-001",1,42,5,"out-group","in-group","in-group","different"
"366",366,366,366,366,21,"underestimator","overestimator",3,2,1,0,0.9350017,57,1,2,1,NA,0,0,1,1,NA,0,6,6,366,6,21,"0","sub-001",1,22,6,"out-group","in-group","in-group","both_high"
"367",367,367,367,367,13,"underestimator","overestimator",3,1,3,NA,NA,37,1,0,2,0,NA,0,NA,NA,NA,NA,7,7,367,7,13,"None","sub-001",1,14,7,"out-group","in-group","in-group","different"
"368",368,368,368,368,41,"underestimator","overestimator",3,4,1,NA,NA,74,1,0,3,0,NA,0,NA,NA,NA,NA,8,8,368,8,41,"None","sub-001",1,42,8,"out-group","in-group","in-group","different"
"369",369,369,369,369,31,"underestimator","overestimator",3,3,1,0,1.0176117,7,1,3,2,0,NA,0,1,NA,0,NA,9,9,369,9,31,"0","sub-001",1,32,9,"out-group","in-group","in-group","different"
"370",370,370,370,370,12,"underestimator","overestimator",3,1,2,0,0.6121197,56,1,1,1,NA,1,0,1,1,NA,1,10,10,370,10,12,"0","sub-001",1,13,10,"out-group","in-group","in-group","both_high"
"371",371,371,371,371,24,"underestimator","overestimator",3,2,4,0,0.5275937,48,1,2,5,1,NA,0,1,NA,1,NA,11,11,371,11,24,"0","sub-001",1,25,11,"out-group","in-group","in-group","different"
"372",372,372,372,372,41,"underestimator","overestimator",3,4,1,1,1.144725,38,1,1,3,1,NA,0,0,NA,1,NA,12,12,372,12,41,"1","sub-001",1,42,12,"out-group","in-group","in-group","different"
"373",373,373,373,373,13,"underestimator","overestimator",3,1,3,0,1.01665,82,1,1,2,1,NA,0,1,NA,1,NA,13,13,373,13,13,"0","sub-001",1,14,13,"out-group","in-group","in-group","different"
"374",374,374,374,374,42,"underestimator","overestimator",3,4,2,0,1.4029738,41,1,4,5,0,NA,0,1,NA,0,NA,14,14,374,14,42,"0","sub-001",1,43,14,"out-group","in-group","in-group","different"
"375",375,375,375,375,43,"underestimator","overestimator",3,4,3,0,1.3083444,44,1,4,6,NA,0,0,1,-1,NA,0,15,15,375,15,43,"0","sub-001",1,44,15,"out-group","in-group","in-group","both_low"
"376",376,376,376,376,23,"underestimator","overestimator",3,2,3,NA,NA,32,1,0,4,0,NA,0,NA,NA,NA,NA,16,16,376,16,23,"None","sub-001",1,24,16,"out-group","in-group","in-group","different"
"377",377,377,377,377,21,"underestimator","overestimator",3,2,1,0,0.7352247,63,1,2,1,NA,0,0,1,1,NA,0,17,17,377,17,21,"0","sub-001",1,22,17,"out-group","in-group","in-group","both_high"
"378",378,378,378,378,24,"underestimator","overestimator",3,2,4,0,0.8663977,60,1,2,5,1,NA,0,1,NA,1,NA,18,18,378,18,24,"0","sub-001",1,25,18,"out-group","in-group","in-group","different"
"379",379,379,379,379,13,"underestimator","overestimator",3,1,3,0,1.0044813,52,1,1,2,1,NA,0,1,NA,1,NA,19,19,379,19,13,"0","sub-001",1,14,19,"out-group","in-group","in-group","different"
"380",380,380,380,380,12,"underestimator","overestimator",3,1,2,1,0.9330386,62,1,2,1,NA,0,0,0,1,NA,0,20,20,380,20,12,"1","sub-001",1,13,20,"out-group","in-group","in-group","both_high"
"381",381,381,381,381,14,"underestimator","overestimator",3,1,4,0,1.1818295,82,1,1,3,1,NA,0,1,NA,1,NA,21,21,381,21,14,"0","sub-001",1,15,21,"out-group","in-group","in-group","different"
"382",382,382,382,382,21,"underestimator","overestimator",3,2,1,1,1.1247552,76,1,1,1,NA,1,0,0,1,NA,1,22,22,382,22,21,"1","sub-001",1,22,22,"out-group","in-group","in-group","both_high"
"383",383,383,383,383,23,"underestimator","overestimator",3,2,3,0,0.7648092,53,1,2,4,1,NA,0,1,NA,1,NA,23,23,383,23,23,"0","sub-001",1,24,23,"out-group","in-group","in-group","different"
"384",384,384,384,384,34,"underestimator","overestimator",3,3,4,1,1.2921057,47,1,4,6,NA,0,0,0,-1,NA,0,24,24,384,24,34,"1","sub-001",1,35,24,"out-group","in-group","in-group","both_low"
"385",385,385,385,385,34,"underestimator","overestimator",3,3,4,1,1.1621931,40,1,4,6,NA,0,0,0,-1,NA,0,25,25,385,25,34,"1","sub-001",1,35,25,"out-group","in-group","in-group","both_low"
"386",386,386,386,386,31,"underestimator","overestimator",3,3,1,1,0.9815241,54,1,1,2,1,NA,0,0,NA,1,NA,26,26,386,26,31,"1","sub-001",1,32,26,"out-group","in-group","in-group","different"
"387",387,387,387,387,21,"underestimator","overestimator",3,2,1,1,1.0700312,51,1,1,1,NA,1,0,0,1,NA,1,27,27,387,27,21,"1","sub-001",1,22,27,"out-group","in-group","in-group","both_high"
"388",388,388,388,388,41,"underestimator","overestimator",3,4,1,1,0.7615265,80,1,1,3,1,NA,0,0,NA,1,NA,28,28,388,28,41,"1","sub-001",1,42,28,"out-group","in-group","in-group","different"
"389",389,389,389,389,23,"underestimator","overestimator",3,2,3,0,0.6729598,58,1,2,4,1,NA,0,1,NA,1,NA,29,29,389,29,23,"0","sub-001",1,24,29,"out-group","in-group","in-group","different"
"390",390,390,390,390,34,"underestimator","overestimator",3,3,4,1,1.0577078,51,1,4,6,NA,0,0,0,-1,NA,0,30,30,390,30,34,"1","sub-001",1,35,30,"out-group","in-group","in-group","both_low"
"391",391,391,391,391,31,"underestimator","overestimator",3,3,1,1,0.7984908,46,1,1,2,1,NA,0,0,NA,1,NA,31,31,391,31,31,"1","sub-001",1,32,31,"out-group","in-group","in-group","different"
"392",392,392,392,392,12,"underestimator","overestimator",3,1,2,0,0.9904939,68,1,1,1,NA,1,0,1,1,NA,1,32,32,392,32,12,"0","sub-001",1,13,32,"out-group","in-group","in-group","both_high"
"393",393,393,393,393,24,"underestimator","overestimator",3,2,4,0,0.8404793,72,1,2,5,1,NA,0,1,NA,1,NA,33,33,393,33,24,"0","sub-001",1,25,33,"out-group","in-group","in-group","different"
"394",394,394,394,394,12,"underestimator","overestimator",3,1,2,1,1.127242,61,1,2,1,NA,0,0,0,1,NA,0,34,34,394,34,12,"1","sub-001",1,13,34,"out-group","in-group","in-group","both_high"
"395",395,395,395,395,32,"underestimator","overestimator",3,3,2,1,0.5951595,66,1,2,4,1,NA,0,0,NA,1,NA,35,35,395,35,32,"1","sub-001",1,33,35,"out-group","in-group","in-group","different"
"396",396,396,396,396,13,"underestimator","overestimator",3,1,3,0,0.9031119,78,1,1,2,1,NA,0,1,NA,1,NA,36,36,396,36,13,"0","sub-001",1,14,36,"out-group","in-group","in-group","different"
"397",397,397,397,397,12,"underestimator","overestimator",3,1,2,0,0.9021967,71,1,1,1,NA,1,0,1,1,NA,1,37,37,397,37,12,"0","sub-001",1,13,37,"out-group","in-group","in-group","both_high"
"398",398,398,398,398,41,"underestimator","overestimator",3,4,1,1,0.5432851,76,1,1,3,1,NA,0,0,NA,1,NA,38,38,398,38,41,"1","sub-001",1,42,38,"out-group","in-group","in-group","different"
"399",399,399,399,399,31,"underestimator","overestimator",3,3,1,1,0.5531088,53,1,1,2,1,NA,0,0,NA,1,NA,39,39,399,39,31,"1","sub-001",1,32,39,"out-group","in-group","in-group","different"
"400",400,400,400,400,41,"underestimator","overestimator",3,4,1,1,0.4931654,76,1,1,3,1,NA,0,0,NA,1,NA,40,40,400,40,41,"1","sub-001",1,42,40,"out-group","in-group","in-group","different"
"401",401,401,401,401,34,"underestimator","overestimator",3,3,4,1,1.1367591,46,1,4,6,NA,0,0,0,-1,NA,0,41,41,401,41,34,"1","sub-001",1,35,41,"out-group","in-group","in-group","both_low"
"402",402,402,402,402,24,"underestimator","overestimator",3,2,4,0,0.815575,55,1,2,5,1,NA,0,1,NA,1,NA,42,42,402,42,24,"0","sub-001",1,25,42,"out-group","in-group","in-group","different"
"403",403,403,403,403,13,"underestimator","overestimator",3,1,3,0,1.0433121,74,1,1,2,1,NA,0,1,NA,1,NA,43,43,403,43,13,"0","sub-001",1,14,43,"out-group","in-group","in-group","different"
"404",404,404,404,404,12,"underestimator","overestimator",3,1,2,NA,NA,50,1,0,1,NA,NA,0,NA,1,NA,NA,44,44,404,44,12,"None","sub-001",1,13,44,"out-group","in-group","in-group","both_high"
"405",405,405,405,405,14,"underestimator","overestimator",3,1,4,0,0.8004894,78,1,1,3,1,NA,0,1,NA,1,NA,45,45,405,45,14,"0","sub-001",1,15,45,"out-group","in-group","in-group","different"
"406",406,406,406,406,43,"underestimator","overestimator",3,4,3,0,0.7688468,47,1,4,6,NA,0,0,1,-1,NA,0,46,46,406,46,43,"0","sub-001",1,44,46,"out-group","in-group","in-group","both_low"
"407",407,407,407,407,42,"underestimator","overestimator",3,4,2,1,0.6861838,58,1,2,5,1,NA,0,0,NA,1,NA,47,47,407,47,42,"1","sub-001",1,43,47,"out-group","in-group","in-group","different"
"408",408,408,408,408,34,"underestimator","overestimator",3,3,4,1,0.815069,41,1,4,6,NA,0,0,0,-1,NA,0,48,48,408,48,34,"1","sub-001",1,35,48,"out-group","in-group","in-group","both_low"
"409",409,409,409,409,21,"underestimator","overestimator",3,2,1,0,0.7546441,51,1,2,1,NA,0,0,1,1,NA,0,49,49,409,49,21,"0","sub-001",1,22,49,"out-group","in-group","in-group","both_high"
"410",410,410,410,410,42,"underestimator","overestimator",3,4,2,1,0.8248818,57,1,2,5,1,NA,0,0,NA,1,NA,50,50,410,50,42,"1","sub-001",1,43,50,"out-group","in-group","in-group","different"
"411",411,411,411,411,31,"underestimator","overestimator",3,3,1,1,0.6868023,38,1,1,2,1,NA,0,0,NA,1,NA,51,51,411,51,31,"1","sub-001",1,32,51,"out-group","in-group","in-group","different"
"412",412,412,412,412,21,"underestimator","overestimator",3,2,1,1,0.4685344,63,1,1,1,NA,1,0,0,1,NA,1,52,52,412,52,21,"1","sub-001",1,22,52,"out-group","in-group","in-group","both_high"
"413",413,413,413,413,13,"underestimator","overestimator",3,1,3,0,0.4945282,62,1,1,2,1,NA,0,1,NA,1,NA,53,53,413,53,13,"0","sub-001",1,14,53,"out-group","in-group","in-group","different"
"414",414,414,414,414,32,"underestimator","overestimator",3,3,2,1,1.1824932,56,1,2,4,1,NA,0,0,NA,1,NA,54,54,414,54,32,"1","sub-001",1,33,54,"out-group","in-group","in-group","different"
"415",415,415,415,415,24,"underestimator","overestimator",3,2,4,0,0.9085871,62,1,2,5,1,NA,0,1,NA,1,NA,55,55,415,55,24,"0","sub-001",1,25,55,"out-group","in-group","in-group","different"
"416",416,416,416,416,23,"underestimator","overestimator",3,2,3,0,0.7985016,62,1,2,4,1,NA,0,1,NA,1,NA,56,56,416,56,23,"0","sub-001",1,24,56,"out-group","in-group","in-group","different"
"417",417,417,417,417,42,"underestimator","overestimator",3,4,2,1,0.7418568,60,1,2,5,1,NA,0,0,NA,1,NA,57,57,417,57,42,"1","sub-001",1,43,57,"out-group","in-group","in-group","different"
"418",418,418,418,418,14,"underestimator","overestimator",3,1,4,0,0.6736581,64,1,1,3,1,NA,0,1,NA,1,NA,58,58,418,58,14,"0","sub-001",1,15,58,"out-group","in-group","in-group","different"
"419",419,419,419,419,34,"underestimator","overestimator",3,3,4,1,1.1410063,38,1,4,6,NA,0,0,0,-1,NA,0,59,59,419,59,34,"1","sub-001",1,35,59,"out-group","in-group","in-group","both_low"
"420",420,420,420,420,14,"underestimator","overestimator",3,1,4,0,0.6504291,76,1,1,3,1,NA,0,1,NA,1,NA,60,60,420,60,14,"0","sub-001",1,15,60,"out-group","in-group","in-group","different"
"421",421,421,421,421,41,"underestimator","overestimator",3,4,1,1,0.6530605,59,1,1,3,1,NA,0,0,NA,1,NA,61,61,421,61,41,"1","sub-001",1,42,61,"out-group","in-group","in-group","different"
"422",422,422,422,422,24,"underestimator","overestimator",3,2,4,0,0.8247909,70,1,2,5,1,NA,0,1,NA,1,NA,62,62,422,62,24,"0","sub-001",1,25,62,"out-group","in-group","in-group","different"
"423",423,423,423,423,32,"underestimator","overestimator",3,3,2,1,0.791907,65,1,2,4,1,NA,0,0,NA,1,NA,63,63,423,63,32,"1","sub-001",1,33,63,"out-group","in-group","in-group","different"
"424",424,424,424,424,24,"underestimator","overestimator",3,2,4,0,0.5417794,60,1,2,5,1,NA,0,1,NA,1,NA,64,64,424,64,24,"0","sub-001",1,25,64,"out-group","in-group","in-group","different"
"425",425,425,425,425,24,"underestimator","overestimator",3,2,4,0,0.5869153,60,1,2,5,1,NA,0,1,NA,1,NA,65,65,425,65,24,"0","sub-001",1,25,65,"out-group","in-group","in-group","different"
"426",426,426,426,426,23,"underestimator","overestimator",3,2,3,0,0.7112247,57,1,2,4,1,NA,0,1,NA,1,NA,66,66,426,66,23,"0","sub-001",1,24,66,"out-group","in-group","in-group","different"
"427",427,427,427,427,31,"underestimator","overestimator",3,3,1,1,0.6253365,70,1,1,2,1,NA,0,0,NA,1,NA,67,67,427,67,31,"1","sub-001",1,32,67,"out-group","in-group","in-group","different"
"428",428,428,428,428,42,"underestimator","overestimator",3,4,2,1,0.7569105,60,1,2,5,1,NA,0,0,NA,1,NA,68,68,428,68,42,"1","sub-001",1,43,68,"out-group","in-group","in-group","different"
"429",429,429,429,429,34,"underestimator","overestimator",3,3,4,1,1.0525243,42,1,4,6,NA,0,0,0,-1,NA,0,69,69,429,69,34,"1","sub-001",1,35,69,"out-group","in-group","in-group","both_low"
"430",430,430,430,430,24,"underestimator","overestimator",3,2,4,0,1.3115365,61,1,2,5,1,NA,0,1,NA,1,NA,70,70,430,70,24,"0","sub-001",1,25,70,"out-group","in-group","in-group","different"
"431",431,431,431,431,41,"underestimator","overestimator",3,4,1,1,0.6165527,49,1,1,3,1,NA,0,0,NA,1,NA,71,71,431,71,41,"1","sub-001",1,42,71,"out-group","in-group","in-group","different"
"432",432,432,432,432,13,"underestimator","overestimator",3,1,3,0,0.5117486,52,1,1,2,1,NA,0,1,NA,1,NA,72,72,432,72,13,"0","sub-001",1,14,72,"out-group","in-group","in-group","different"
"433",433,433,433,433,31,"underestimator","overestimator",3,3,1,1,0.4045965,62,1,1,2,1,NA,0,0,NA,1,NA,73,73,433,73,31,"1","sub-001",1,32,73,"out-group","in-group","in-group","different"
"434",434,434,434,434,32,"underestimator","overestimator",3,3,2,1,0.8709489,59,1,2,4,1,NA,0,0,NA,1,NA,74,74,434,74,32,"1","sub-001",1,33,74,"out-group","in-group","in-group","different"
"435",435,435,435,435,12,"underestimator","overestimator",3,1,2,1,0.9745107,61,1,2,1,NA,0,0,0,1,NA,0,75,75,435,75,12,"1","sub-001",1,13,75,"out-group","in-group","in-group","both_high"
"436",436,436,436,436,43,"underestimator","overestimator",3,4,3,0,1.3922323,40,1,4,6,NA,0,0,1,-1,NA,0,76,76,436,76,43,"0","sub-001",1,44,76,"out-group","in-group","in-group","both_low"
"437",437,437,437,437,14,"underestimator","overestimator",3,1,4,0,0.5780491,82,1,1,3,1,NA,0,1,NA,1,NA,77,77,437,77,14,"0","sub-001",1,15,77,"out-group","in-group","in-group","different"
"438",438,438,438,438,12,"underestimator","overestimator",3,1,2,0,0.5406897,55,1,1,1,NA,1,0,1,1,NA,1,78,78,438,78,12,"0","sub-001",1,13,78,"out-group","in-group","in-group","both_high"
"439",439,439,439,439,23,"underestimator","overestimator",3,2,3,0,0.8826036,61,1,2,4,1,NA,0,1,NA,1,NA,79,79,439,79,23,"0","sub-001",1,24,79,"out-group","in-group","in-group","different"
"440",440,440,440,440,32,"underestimator","overestimator",3,3,2,1,1.0400577,68,1,2,4,1,NA,0,0,NA,1,NA,80,80,440,80,32,"1","sub-001",1,33,80,"out-group","in-group","in-group","different"
"441",441,441,441,441,14,"underestimator","overestimator",3,1,4,0,0.7668074,77,1,1,3,1,NA,0,1,NA,1,NA,81,81,441,81,14,"0","sub-001",1,15,81,"out-group","in-group","in-group","different"
"442",442,442,442,442,42,"underestimator","overestimator",3,4,2,1,1.1839199,61,1,2,5,1,NA,0,0,NA,1,NA,82,82,442,82,42,"1","sub-001",1,43,82,"out-group","in-group","in-group","different"
"443",443,443,443,443,34,"underestimator","overestimator",3,3,4,1,1.2888104,40,1,4,6,NA,0,0,0,-1,NA,0,83,83,443,83,34,"1","sub-001",1,35,83,"out-group","in-group","in-group","both_low"
"444",444,444,444,444,31,"underestimator","overestimator",3,3,1,1,0.6909325,71,1,1,2,1,NA,0,0,NA,1,NA,84,84,444,84,31,"1","sub-001",1,32,84,"out-group","in-group","in-group","different"
"445",445,445,445,445,32,"underestimator","overestimator",3,3,2,1,0.9269081,56,1,2,4,1,NA,0,0,NA,1,NA,85,85,445,85,32,"1","sub-001",1,33,85,"out-group","in-group","in-group","different"
"446",446,446,446,446,13,"underestimator","overestimator",3,1,3,0,0.7577874,59,1,1,2,1,NA,0,1,NA,1,NA,86,86,446,86,13,"0","sub-001",1,14,86,"out-group","in-group","in-group","different"
"447",447,447,447,447,41,"underestimator","overestimator",3,4,1,1,0.552824,70,1,1,3,1,NA,0,0,NA,1,NA,87,87,447,87,41,"1","sub-001",1,42,87,"out-group","in-group","in-group","different"
"448",448,448,448,448,24,"underestimator","overestimator",3,2,4,0,0.8247374,51,1,2,5,1,NA,0,1,NA,1,NA,88,88,448,88,24,"0","sub-001",1,25,88,"out-group","in-group","in-group","different"
"449",449,449,449,449,31,"underestimator","overestimator",3,3,1,1,0.5030708,74,1,1,2,1,NA,0,0,NA,1,NA,89,89,449,89,31,"1","sub-001",1,32,89,"out-group","in-group","in-group","different"
"450",450,450,450,450,23,"underestimator","overestimator",3,2,3,0,0.7397475,56,1,2,4,1,NA,0,1,NA,1,NA,90,90,450,90,23,"0","sub-001",1,24,90,"out-group","in-group","in-group","different"
"451",451,451,451,451,12,"underestimator","overestimator",3,1,2,0,0.8679854,71,1,1,1,NA,1,0,1,1,NA,1,91,91,451,91,12,"0","sub-001",1,13,91,"out-group","in-group","in-group","both_high"
"452",452,452,452,452,32,"underestimator","overestimator",3,3,2,1,1.2467272,62,1,2,4,1,NA,0,0,NA,1,NA,92,92,452,92,32,"1","sub-001",1,33,92,"out-group","in-group","in-group","different"
"453",453,453,453,453,21,"underestimator","overestimator",3,2,1,1,1.1402014,71,1,1,1,NA,1,0,0,1,NA,1,93,93,453,93,21,"1","sub-001",1,22,93,"out-group","in-group","in-group","both_high"
"454",454,454,454,454,42,"underestimator","overestimator",3,4,2,1,0.93599,59,1,2,5,1,NA,0,0,NA,1,NA,94,94,454,94,42,"1","sub-001",1,43,94,"out-group","in-group","in-group","different"
"455",455,455,455,455,23,"underestimator","overestimator",3,2,3,0,0.5567534,48,1,2,4,1,NA,0,1,NA,1,NA,95,95,455,95,23,"0","sub-001",1,24,95,"out-group","in-group","in-group","different"
"456",456,456,456,456,14,"underestimator","overestimator",3,1,4,0,0.965589,53,1,1,3,1,NA,0,1,NA,1,NA,96,96,456,96,14,"0","sub-001",1,15,96,"out-group","in-group","in-group","different"
"457",457,457,457,457,24,"underestimator","overestimator",3,2,4,0,0.9105762,53,1,2,5,1,NA,0,1,NA,1,NA,97,97,457,97,24,"0","sub-001",1,25,97,"out-group","in-group","in-group","different"
"458",458,458,458,458,32,"underestimator","overestimator",3,3,2,1,0.7915707,61,1,2,4,1,NA,0,0,NA,1,NA,98,98,458,98,32,"1","sub-001",1,33,98,"out-group","in-group","in-group","different"
"459",459,459,459,459,42,"underestimator","overestimator",3,4,2,1,0.4416169,54,1,2,5,1,NA,0,0,NA,1,NA,99,99,459,99,42,"1","sub-001",1,43,99,"out-group","in-group","in-group","different"
"460",460,460,460,460,41,"underestimator","overestimator",3,4,1,1,0.8282445,41,1,1,3,1,NA,0,0,NA,1,NA,100,100,460,100,41,"1","sub-001",1,42,100,"out-group","in-group","in-group","different"
"461",461,461,461,461,43,"underestimator","overestimator",3,4,3,0,1.2528623,50,1,4,6,NA,0,0,1,-1,NA,0,101,101,461,101,43,"0","sub-001",1,44,101,"out-group","in-group","in-group","both_low"
"462",462,462,462,462,14,"underestimator","overestimator",3,1,4,0,0.7998016,63,1,1,3,1,NA,0,1,NA,1,NA,102,102,462,102,14,"0","sub-001",1,15,102,"out-group","in-group","in-group","different"
"463",463,463,463,463,34,"underestimator","overestimator",3,3,4,1,1.4183552,49,1,4,6,NA,0,0,0,-1,NA,0,103,103,463,103,34,"1","sub-001",1,35,103,"out-group","in-group","in-group","both_low"
"464",464,464,464,464,41,"underestimator","overestimator",3,4,1,1,0.6252255,73,1,1,3,1,NA,0,0,NA,1,NA,104,104,464,104,41,"1","sub-001",1,42,104,"out-group","in-group","in-group","different"
"465",465,465,465,465,43,"underestimator","overestimator",3,4,3,0,1.1020457,47,1,4,6,NA,0,0,1,-1,NA,0,105,105,465,105,43,"0","sub-001",1,44,105,"out-group","in-group","in-group","both_low"
"466",466,466,466,466,24,"underestimator","overestimator",3,2,4,0,1.1771263,63,1,2,5,1,NA,0,1,NA,1,NA,106,106,466,106,24,"0","sub-001",1,25,106,"out-group","in-group","in-group","different"
"467",467,467,467,467,42,"underestimator","overestimator",3,4,2,1,1.0487723,58,1,2,5,1,NA,0,0,NA,1,NA,107,107,467,107,42,"1","sub-001",1,43,107,"out-group","in-group","in-group","different"
"468",468,468,468,468,34,"underestimator","overestimator",3,3,4,1,1.2940437,43,1,4,6,NA,0,0,0,-1,NA,0,108,108,468,108,34,"1","sub-001",1,35,108,"out-group","in-group","in-group","both_low"
"469",469,469,469,469,12,"underestimator","overestimator",3,1,2,0,0.8849222,27,1,1,1,NA,1,0,1,1,NA,1,109,109,469,109,12,"0","sub-001",1,13,109,"out-group","in-group","in-group","both_high"
"470",470,470,470,470,43,"underestimator","overestimator",3,4,3,0,1.2994712,43,1,4,6,NA,0,0,1,-1,NA,0,110,110,470,110,43,"0","sub-001",1,44,110,"out-group","in-group","in-group","both_low"
"471",471,471,471,471,43,"underestimator","overestimator",3,4,3,0,1.0829349,49,1,4,6,NA,0,0,1,-1,NA,0,111,111,471,111,43,"0","sub-001",1,44,111,"out-group","in-group","in-group","both_low"
"472",472,472,472,472,34,"underestimator","overestimator",3,3,4,1,0.9072615,41,1,4,6,NA,0,0,0,-1,NA,0,112,112,472,112,34,"1","sub-001",1,35,112,"out-group","in-group","in-group","both_low"
"473",473,473,473,473,31,"underestimator","overestimator",3,3,1,1,1.2623638,50,1,1,2,1,NA,0,0,NA,1,NA,113,113,473,113,31,"1","sub-001",1,32,113,"out-group","in-group","in-group","different"
"474",474,474,474,474,43,"underestimator","overestimator",3,4,3,0,1.1302323,49,1,4,6,NA,0,0,1,-1,NA,0,114,114,474,114,43,"0","sub-001",1,44,114,"out-group","in-group","in-group","both_low"
"475",475,475,475,475,14,"underestimator","overestimator",3,1,4,0,0.6083532,45,1,1,3,1,NA,0,1,NA,1,NA,115,115,475,115,14,"0","sub-001",1,15,115,"out-group","in-group","in-group","different"
"476",476,476,476,476,23,"underestimator","overestimator",3,2,3,0,1.1158201,65,1,2,4,1,NA,0,1,NA,1,NA,116,116,476,116,23,"0","sub-001",1,24,116,"out-group","in-group","in-group","different"
"477",477,477,477,477,21,"underestimator","overestimator",3,2,1,1,0.775208,51,1,1,1,NA,1,0,0,1,NA,1,117,117,477,117,21,"1","sub-001",1,22,117,"out-group","in-group","in-group","both_high"
"478",478,478,478,478,23,"underestimator","overestimator",3,2,3,0,0.6143656,63,1,2,4,1,NA,0,1,NA,1,NA,118,118,478,118,23,"0","sub-001",1,24,118,"out-group","in-group","in-group","different"
"479",479,479,479,479,42,"underestimator","overestimator",3,4,2,1,0.5997577,60,1,2,5,1,NA,0,0,NA,1,NA,119,119,479,119,42,"1","sub-001",1,43,119,"out-group","in-group","in-group","different"
"480",480,480,480,480,34,"underestimator","overestimator",3,3,4,1,1.1783952,50,1,4,6,NA,0,0,0,-1,NA,0,120,120,480,120,34,"1","sub-001",1,35,120,"out-group","in-group","in-group","both_low"
"481",481,481,481,481,43,"underestimator","overestimator",3,4,3,0,1.1913736,42,1,4,6,NA,0,0,1,-1,NA,0,121,121,481,121,43,"0","sub-001",1,44,121,"out-group","in-group","in-group","both_low"
"482",482,482,482,482,34,"underestimator","overestimator",3,3,4,1,1.174972,49,1,4,6,NA,0,0,0,-1,NA,0,122,122,482,122,34,"1","sub-001",1,35,122,"out-group","in-group","in-group","both_low"
"483",483,483,483,483,12,"underestimator","overestimator",3,1,2,0,1.1725,92,1,1,1,NA,1,0,1,1,NA,1,123,123,483,123,12,"0","sub-001",1,13,123,"out-group","in-group","in-group","both_high"
"484",484,484,484,484,41,"underestimator","overestimator",3,4,1,1,0.5755908,94,1,1,3,1,NA,0,0,NA,1,NA,124,124,484,124,41,"1","sub-001",1,42,124,"out-group","in-group","in-group","different"
"485",485,485,485,485,34,"underestimator","overestimator",3,3,4,1,0.8117805,43,1,4,6,NA,0,0,0,-1,NA,0,125,125,485,125,34,"1","sub-001",1,35,125,"out-group","in-group","in-group","both_low"
"486",486,486,486,486,14,"underestimator","overestimator",3,1,4,0,0.4667075,53,1,1,3,1,NA,0,1,NA,1,NA,126,126,486,126,14,"0","sub-001",1,15,126,"out-group","in-group","in-group","different"
"487",487,487,487,487,24,"underestimator","overestimator",3,2,4,0,0.9019414,60,1,2,5,1,NA,0,1,NA,1,NA,127,127,487,127,24,"0","sub-001",1,25,127,"out-group","in-group","in-group","different"
"488",488,488,488,488,21,"underestimator","overestimator",3,2,1,1,0.5896888,69,1,1,1,NA,1,0,0,1,NA,1,128,128,488,128,21,"1","sub-001",1,22,128,"out-group","in-group","in-group","both_high"
"489",489,489,489,489,14,"underestimator","overestimator",3,1,4,0,0.5936731,50,1,1,3,1,NA,0,1,NA,1,NA,129,129,489,129,14,"0","sub-001",1,15,129,"out-group","in-group","in-group","different"
"490",490,490,490,490,23,"underestimator","overestimator",3,2,3,0,1.0077579,53,1,2,4,1,NA,0,1,NA,1,NA,130,130,490,130,23,"0","sub-001",1,24,130,"out-group","in-group","in-group","different"
"491",491,491,491,491,42,"underestimator","overestimator",3,4,2,1,0.7556231,60,1,2,5,1,NA,0,0,NA,1,NA,131,131,491,131,42,"1","sub-001",1,43,131,"out-group","in-group","in-group","different"
"492",492,492,492,492,32,"underestimator","overestimator",3,3,2,1,0.9745232,61,1,2,4,1,NA,0,0,NA,1,NA,132,132,492,132,32,"1","sub-001",1,33,132,"out-group","in-group","in-group","different"
"493",493,493,493,493,32,"underestimator","overestimator",3,3,2,1,0.8943221,62,1,2,4,1,NA,0,0,NA,1,NA,133,133,493,133,32,"1","sub-001",1,33,133,"out-group","in-group","in-group","different"
"494",494,494,494,494,43,"underestimator","overestimator",3,4,3,0,0.8467536,39,1,4,6,NA,0,0,1,-1,NA,0,134,134,494,134,43,"0","sub-001",1,44,134,"out-group","in-group","in-group","both_low"
"495",495,495,495,495,42,"underestimator","overestimator",3,4,2,1,0.5861703,62,1,2,5,1,NA,0,0,NA,1,NA,135,135,495,135,42,"1","sub-001",1,43,135,"out-group","in-group","in-group","different"
"496",496,496,496,496,32,"underestimator","overestimator",3,3,2,1,0.9615655,61,1,2,4,1,NA,0,0,NA,1,NA,136,136,496,136,32,"1","sub-001",1,33,136,"out-group","in-group","in-group","different"
"497",497,497,497,497,13,"underestimator","overestimator",3,1,3,0,0.8857281,52,1,1,2,1,NA,0,1,NA,1,NA,137,137,497,137,13,"0","sub-001",1,14,137,"out-group","in-group","in-group","different"
"498",498,498,498,498,23,"underestimator","overestimator",3,2,3,0,0.7887729,62,1,2,4,1,NA,0,1,NA,1,NA,138,138,498,138,23,"0","sub-001",1,24,138,"out-group","in-group","in-group","different"
"499",499,499,499,499,42,"underestimator","overestimator",3,4,2,1,0.4664437,68,1,2,5,1,NA,0,0,NA,1,NA,139,139,499,139,42,"1","sub-001",1,43,139,"out-group","in-group","in-group","different"
"500",500,500,500,500,43,"underestimator","overestimator",3,4,3,0,0.7736423,38,1,4,6,NA,0,0,1,-1,NA,0,140,140,500,140,43,"0","sub-001",1,44,140,"out-group","in-group","in-group","both_low"
"501",501,501,501,501,43,"underestimator","overestimator",3,4,3,0,1.1866334,37,1,4,6,NA,0,0,1,-1,NA,0,141,141,501,141,43,"0","sub-001",1,44,141,"out-group","in-group","in-group","both_low"
"502",502,502,502,502,31,"underestimator","overestimator",3,3,1,1,0.5914363,87,1,1,2,1,NA,0,0,NA,1,NA,142,142,502,142,31,"1","sub-001",1,32,142,"out-group","in-group","in-group","different"
"503",503,503,503,503,34,"underestimator","overestimator",3,3,4,1,0.7651249,46,1,4,6,NA,0,0,0,-1,NA,0,143,143,503,143,34,"1","sub-001",1,35,143,"out-group","in-group","in-group","both_low"
"504",504,504,504,504,14,"underestimator","overestimator",3,1,4,0,0.6420035,63,1,1,3,1,NA,0,1,NA,1,NA,144,144,504,144,14,"0","sub-001",1,15,144,"out-group","in-group","in-group","different"
"505",505,505,505,505,21,"underestimator","overestimator",3,2,1,1,0.4337942,64,1,1,1,NA,1,0,0,1,NA,1,145,145,505,145,21,"1","sub-001",1,22,145,"out-group","in-group","in-group","both_high"
"506",506,506,506,506,41,"underestimator","overestimator",3,4,1,1,0.4915946,51,1,1,3,1,NA,0,0,NA,1,NA,146,146,506,146,41,"1","sub-001",1,42,146,"out-group","in-group","in-group","different"
"507",507,507,507,507,12,"underestimator","overestimator",3,1,2,0,0.9530764,32,1,1,1,NA,1,0,1,1,NA,1,147,147,507,147,12,"0","sub-001",1,13,147,"out-group","in-group","in-group","both_high"
"508",508,508,508,508,32,"underestimator","overestimator",3,3,2,1,0.8532449,58,1,2,4,1,NA,0,0,NA,1,NA,148,148,508,148,32,"1","sub-001",1,33,148,"out-group","in-group","in-group","different"
"509",509,509,509,509,23,"underestimator","overestimator",3,2,3,0,0.8410773,59,1,2,4,1,NA,0,1,NA,1,NA,149,149,509,149,23,"0","sub-001",1,24,149,"out-group","in-group","in-group","different"
"510",510,510,510,510,31,"underestimator","overestimator",3,3,1,1,0.7032202,62,1,1,2,1,NA,0,0,NA,1,NA,150,150,510,150,31,"1","sub-001",1,32,150,"out-group","in-group","in-group","different"
"511",511,511,511,511,12,"underestimator","overestimator",3,1,2,0,0.7024818,57,1,1,1,NA,1,0,1,1,NA,1,151,151,511,151,12,"0","sub-001",1,13,151,"out-group","in-group","in-group","both_high"
"512",512,512,512,512,24,"underestimator","overestimator",3,2,4,0,1.2826004,60,1,2,5,1,NA,0,1,NA,1,NA,152,152,512,152,24,"0","sub-001",1,25,152,"out-group","in-group","in-group","different"
"513",513,513,513,513,23,"underestimator","overestimator",3,2,3,0,0.6664088,65,1,2,4,1,NA,0,1,NA,1,NA,153,153,513,153,23,"0","sub-001",1,24,153,"out-group","in-group","in-group","different"
"514",514,514,514,514,41,"underestimator","overestimator",3,4,1,1,0.7213824,90,1,1,3,1,NA,0,0,NA,1,NA,154,154,514,154,41,"1","sub-001",1,42,154,"out-group","in-group","in-group","different"
"515",515,515,515,515,32,"underestimator","overestimator",3,3,2,1,0.7328627,56,1,2,4,1,NA,0,0,NA,1,NA,155,155,515,155,32,"1","sub-001",1,33,155,"out-group","in-group","in-group","different"
"516",516,516,516,516,13,"underestimator","overestimator",3,1,3,0,0.7268524,58,1,1,2,1,NA,0,1,NA,1,NA,156,156,516,156,13,"0","sub-001",1,14,156,"out-group","in-group","in-group","different"
"517",517,517,517,517,31,"underestimator","overestimator",3,3,1,1,0.6433371,73,1,1,2,1,NA,0,0,NA,1,NA,157,157,517,157,31,"1","sub-001",1,32,157,"out-group","in-group","in-group","different"
"518",518,518,518,518,43,"underestimator","overestimator",3,4,3,0,0.9845182,36,1,4,6,NA,0,0,1,-1,NA,0,158,158,518,158,43,"0","sub-001",1,44,158,"out-group","in-group","in-group","both_low"
"519",519,519,519,519,32,"underestimator","overestimator",3,3,2,1,1.2006353,58,1,2,4,1,NA,0,0,NA,1,NA,159,159,519,159,32,"1","sub-001",1,33,159,"out-group","in-group","in-group","different"
"520",520,520,520,520,21,"underestimator","overestimator",3,2,1,1,0.7690143,43,1,1,1,NA,1,0,0,1,NA,1,160,160,520,160,21,"1","sub-001",1,22,160,"out-group","in-group","in-group","both_high"
"521",521,521,521,521,43,"underestimator","overestimator",3,4,3,0,0.9335749,39,1,4,6,NA,0,0,1,-1,NA,0,161,161,521,161,43,"0","sub-001",1,44,161,"out-group","in-group","in-group","both_low"
"522",522,522,522,522,31,"underestimator","overestimator",3,3,1,1,0.6601563,62,1,1,2,1,NA,0,0,NA,1,NA,162,162,522,162,31,"1","sub-001",1,32,162,"out-group","in-group","in-group","different"
"523",523,523,523,523,24,"underestimator","overestimator",3,2,4,0,0.8414288,62,1,2,5,1,NA,0,1,NA,1,NA,163,163,523,163,24,"0","sub-001",1,25,163,"out-group","in-group","in-group","different"
"524",524,524,524,524,13,"underestimator","overestimator",3,1,3,0,0.8466064,57,1,1,2,1,NA,0,1,NA,1,NA,164,164,524,164,13,"0","sub-001",1,14,164,"out-group","in-group","in-group","different"
"525",525,525,525,525,13,"underestimator","overestimator",3,1,3,0,0.6531857,65,1,1,2,1,NA,0,1,NA,1,NA,165,165,525,165,13,"0","sub-001",1,14,165,"out-group","in-group","in-group","different"
"526",526,526,526,526,13,"underestimator","overestimator",3,1,3,0,0.541893,59,1,1,2,1,NA,0,1,NA,1,NA,166,166,526,166,13,"0","sub-001",1,14,166,"out-group","in-group","in-group","different"
"527",527,527,527,527,13,"underestimator","overestimator",3,1,3,0,0.5740189,63,1,1,2,1,NA,0,1,NA,1,NA,167,167,527,167,13,"0","sub-001",1,14,167,"out-group","in-group","in-group","different"
"528",528,528,528,528,41,"underestimator","overestimator",3,4,1,1,0.6488765,47,1,1,3,1,NA,0,0,NA,1,NA,168,168,528,168,41,"1","sub-001",1,42,168,"out-group","in-group","in-group","different"
"529",529,529,529,529,42,"underestimator","overestimator",3,4,2,1,0.6025262,51,1,2,5,1,NA,0,0,NA,1,NA,169,169,529,169,42,"1","sub-001",1,43,169,"out-group","in-group","in-group","different"
"530",530,530,530,530,14,"underestimator","overestimator",3,1,4,0,0.6188898,38,1,1,3,1,NA,0,1,NA,1,NA,170,170,530,170,14,"0","sub-001",1,15,170,"out-group","in-group","in-group","different"
"531",531,531,531,531,21,"underestimator","overestimator",3,2,1,1,0.5068892,68,1,1,1,NA,1,0,0,1,NA,1,171,171,531,171,21,"1","sub-001",1,22,171,"out-group","in-group","in-group","both_high"
"532",532,532,532,532,43,"underestimator","overestimator",3,4,3,0,0.8999427,39,1,4,6,NA,0,0,1,-1,NA,0,172,172,532,172,43,"0","sub-001",1,44,172,"out-group","in-group","in-group","both_low"
"533",533,533,533,533,31,"underestimator","overestimator",3,3,1,1,0.8657565,60,1,1,2,1,NA,0,0,NA,1,NA,173,173,533,173,31,"1","sub-001",1,32,173,"out-group","in-group","in-group","different"
"534",534,534,534,534,14,"underestimator","overestimator",3,1,4,0,0.6026502,93,1,1,3,1,NA,0,1,NA,1,NA,174,174,534,174,14,"0","sub-001",1,15,174,"out-group","in-group","in-group","different"
